subject,blockcode,trialcode,trialnum,response,latency,stimulusitem3,stimulusitem4,stimulusitem5,stimulusitem6,stimulusitem8,stimulusitem9,stimulusitem10,stimulusitem11,values.gridface1_code,values.gridface2_code,values.gridface3_code,values.gridface4_code,values.gridface5_code,values.gridface6_code,values.gridface7_code,values.gridface8_code,values.avg_grid1,values.avg_grid2,values.variance_grid1,values.variance_grid2,values.trial_retry,values.nTrials,var_grid1,var_grid2,correct_resp_var,correct_var_num,easiness_var,correct_resp_avg,correct_avg_num,easiness_avg
553555587,main_instructions,main_instructions1,1,57,7905,0,0,0,0,0,0,0,0,999,999,999,999,999,999,999,999,999,999,999,999,999,100,0,0,NA,NA,0,NA,NA,0
553555587,main_instructions,main_instructions2,2,57,7699,0,0,0,0,0,0,0,0,999,999,999,999,999,999,999,999,999,999,999,999,999,100,0,0,NA,NA,0,NA,NA,0
553555587,main_instructions,main_instructions3,3,57,8878,0,0,0,0,0,0,0,0,999,999,999,999,999,999,999,999,999,999,999,999,999,100,0,0,NA,NA,0,NA,NA,0
553555587,main_instructions,main_instructions4,4,57,3768,0,0,0,0,0,0,0,0,999,999,999,999,999,999,999,999,999,999,999,999,999,100,0,0,NA,NA,0,NA,NA,0
553555587,gridcompare_block,gridcompare_trial,1,50,2640,nexus2_14_tw_-3.00.jpg,nexus2_10_tw_2.00.jpg,nexus2_1_tw_-2.00.jpg,nexus2_7_tw_2.00.jpg,nexus2_13_tw_3.00.jpg,nexus2_5_tw_0.00.jpg,nexus2_15_tw_0.00.jpg,nexus2_20_tw_-3.00.jpg,-3,2,-2,2,3,0,0,-3,-0.25,0,6.916666667,6,0,100,6.916666667,6,38,0,0.916666667,50,1,0.25
553555587,gridcompare_block,gridcompare_trial,2,38,1719,nexus2_2_tw_-2.00.jpg,nexus2_1_tw_-3.00.jpg,nexus2_16_tw_0.00.jpg,nexus2_14_tw_-2.00.jpg,nexus2_4_tw_1.00.jpg,nexus2_18_tw_-3.00.jpg,nexus2_17_tw_0.00.jpg,nexus2_6_tw_-1.00.jpg,-2,-3,0,-2,1,-3,0,-1,-1.75,-0.75,1.583333333,2.916666667,0,100,1.583333333,2.916666667,50,0,1.333333333,50,0,1
553555587,gridcompare_block,gridcompare_trial,3,38,931,nexus2_7_tw_1.00.jpg,nexus2_22_tw_-3.00.jpg,nexus2_14_tw_2.00.jpg,nexus2_1_tw_1.00.jpg,nexus2_10_tw_-3.00.jpg,nexus2_24_tw_0.00.jpg,nexus2_5_tw_3.00.jpg,nexus2_25_tw_-3.00.jpg,1,-3,2,1,-3,0,3,-3,0.25,-0.75,4.916666667,8.25,0,100,4.916666667,8.25,50,0,3.333333333,38,1,1
553555587,gridcompare_block,gridcompare_trial,4,50,1678,nexus2_25_tw_0.00.jpg,nexus2_10_tw_-1.00.jpg,nexus2_18_tw_0.00.jpg,nexus2_9_tw_-3.00.jpg,nexus2_4_tw_-3.00.jpg,nexus2_8_tw_-1.00.jpg,nexus2_7_tw_-3.00.jpg,nexus2_24_tw_1.00.jpg,0,-1,0,-3,-3,-1,-3,1,-1,-1.5,2,3.666666667,0,100,2,3.666666667,50,1,1.666666667,38,0,0.5
553555587,gridcompare_block,gridcompare_trial,5,38,1579,nexus2_14_tw_1.00.jpg,nexus2_20_tw_1.00.jpg,nexus2_10_tw_0.00.jpg,nexus2_1_tw_0.00.jpg,nexus2_17_tw_-2.00.jpg,nexus2_5_tw_-1.00.jpg,nexus2_11_tw_0.00.jpg,nexus2_13_tw_0.00.jpg,1,1,0,0,-2,-1,0,0,0.5,-0.75,0.333333333,0.916666667,0,100,0.333333333,0.916666667,50,0,0.583333333,38,1,1.25
553555587,gridcompare_block,gridcompare_trial,6,38,1774,nexus2_1_tw_-1.00.jpg,nexus2_16_tw_3.00.jpg,nexus2_15_tw_2.00.jpg,nexus2_23_tw_1.00.jpg,nexus2_8_tw_3.00.jpg,nexus2_24_tw_2.00.jpg,nexus2_17_tw_-3.00.jpg,nexus2_5_tw_1.00.jpg,-1,3,2,1,3,2,-3,1,1.25,0.75,2.916666667,6.916666667,0,100,2.916666667,6.916666667,50,0,4,38,1,0.5
553555587,gridcompare_block,gridcompare_trial,7,38,2232,nexus2_9_tw_2.00.jpg,nexus2_2_tw_3.00.jpg,nexus2_17_tw_3.00.jpg,nexus2_13_tw_-2.00.jpg,nexus2_5_tw_-2.00.jpg,nexus2_10_tw_3.00.jpg,nexus2_20_tw_2.00.jpg,nexus2_6_tw_-3.00.jpg,2,3,3,-2,-2,3,2,-3,1.5,0,5.666666667,8.666666667,0,100,5.666666667,8.666666667,50,0,3,38,1,1.5
553555587,gridcompare_block,gridcompare_trial,8,50,1279,nexus2_20_tw_0.00.jpg,nexus2_25_tw_2.00.jpg,nexus2_9_tw_0.00.jpg,nexus2_21_tw_1.00.jpg,nexus2_5_tw_-3.00.jpg,nexus2_10_tw_1.00.jpg,nexus2_2_tw_0.00.jpg,nexus2_14_tw_3.00.jpg,0,2,0,1,-3,1,0,3,0.75,0.25,0.916666667,6.25,0,100,0.916666667,6.25,50,1,5.333333333,38,0,0.5
553555587,gridcompare_block,gridcompare_trial,9,38,1022,nexus2_4_tw_-1.00.jpg,nexus2_1_tw_2.00.jpg,nexus2_25_tw_3.00.jpg,nexus2_7_tw_-2.00.jpg,nexus2_20_tw_-1.00.jpg,nexus2_22_tw_0.00.jpg,nexus2_6_tw_2.00.jpg,nexus2_18_tw_1.00.jpg,-1,2,3,-2,-1,0,2,1,0.5,0.5,5.666666667,1.666666667,0,100,5.666666667,1.666666667,38,1,4,NA,NA,0
553555587,gridcompare_block,gridcompare_trial,10,38,1669,nexus2_8_tw_-2.00.jpg,nexus2_3_tw_-1.00.jpg,nexus2_14_tw_0.00.jpg,nexus2_18_tw_3.00.jpg,nexus2_15_tw_-3.00.jpg,nexus2_6_tw_3.00.jpg,nexus2_10_tw_-2.00.jpg,nexus2_16_tw_-3.00.jpg,-2,-1,0,3,-3,3,-2,-3,0,-1.25,4.666666667,8.25,0,100,4.666666667,8.25,50,0,3.583333333,38,1,1.25
553555587,gridcompare_block,gridcompare_trial,11,38,2404,nexus2_13_tw_1.00.jpg,nexus2_24_tw_3.00.jpg,nexus2_25_tw_-1.00.jpg,nexus2_14_tw_-1.00.jpg,nexus2_15_tw_3.00.jpg,nexus2_3_tw_-2.00.jpg,nexus2_4_tw_3.00.jpg,nexus2_5_tw_2.00.jpg,1,3,-1,-1,3,-2,3,2,0.5,1.5,3.666666667,5.666666667,0,100,3.666666667,5.666666667,50,0,2,50,0,1
553555587,gridcompare_block,gridcompare_trial,12,50,2869,nexus2_8_tw_1.00.jpg,nexus2_10_tw_3.00.jpg,nexus2_21_tw_-3.00.jpg,nexus2_1_tw_3.00.jpg,nexus2_25_tw_1.00.jpg,nexus2_9_tw_3.00.jpg,nexus2_12_tw_-1.00.jpg,nexus2_19_tw_2.00.jpg,1,3,-3,3,1,3,-1,2,1,1.25,8,2.916666667,0,100,8,2.916666667,38,0,5.083333333,50,1,0.25
553555587,gridcompare_block,gridcompare_trial,13,38,1059,nexus2_15_tw_1.00.jpg,nexus2_25_tw_-2.00.jpg,nexus2_24_tw_-1.00.jpg,nexus2_2_tw_-3.00.jpg,nexus2_19_tw_0.00.jpg,nexus2_8_tw_2.00.jpg,nexus2_4_tw_0.00.jpg,nexus2_10_tw_-1.00.jpg,1,-2,-1,-3,0,2,0,-1,-1.25,0.25,2.916666667,1.583333333,0,100,2.916666667,1.583333333,38,1,1.333333333,50,0,1.5
553555587,gridcompare_block,gridcompare_trial,14,38,1530,nexus2_25_tw_-2.00.jpg,nexus2_8_tw_0.00.jpg,nexus2_11_tw_2.00.jpg,nexus2_13_tw_-3.00.jpg,nexus2_18_tw_2.00.jpg,nexus2_6_tw_0.00.jpg,nexus2_9_tw_-1.00.jpg,nexus2_22_tw_2.00.jpg,-2,0,2,-3,2,0,-1,2,-0.75,0.75,4.916666667,2.25,0,100,4.916666667,2.25,38,1,2.666666667,50,0,1.5
553555587,gridcompare_block,gridcompare_trial,15,38,1950,nexus2_8_tw_-3.00.jpg,nexus2_6_tw_1.00.jpg,nexus2_19_tw_3.00.jpg,nexus2_15_tw_-2.00.jpg,nexus2_21_tw_-2.00.jpg,nexus2_18_tw_-1.00.jpg,nexus2_23_tw_-1.00.jpg,nexus2_17_tw_1.00.jpg,-3,1,3,-2,-2,-1,-1,1,-0.25,-0.75,7.583333333,1.583333333,0,100,7.583333333,1.583333333,38,1,6,38,1,0.5
553555587,gridcompare_block,gridcompare_trial,16,38,1920,nexus2_25_tw_-3.00.jpg,nexus2_5_tw_-1.00.jpg,nexus2_7_tw_-1.00.jpg,nexus2_24_tw_-3.00.jpg,nexus2_10_tw_2.00.jpg,nexus2_16_tw_1.00.jpg,nexus2_3_tw_-3.00.jpg,nexus2_18_tw_-2.00.jpg,-3,-1,-1,-3,2,1,-3,-2,-2,-0.5,1.333333333,5.666666667,0,100,1.333333333,5.666666667,50,0,4.333333333,50,0,1.5
553555587,gridcompare_block,gridcompare_trial,17,50,1396,nexus2_6_tw_-2.00.jpg,nexus2_2_tw_1.00.jpg,nexus2_25_tw_3.00.jpg,nexus2_13_tw_-1.00.jpg,nexus2_16_tw_-2.00.jpg,nexus2_8_tw_0.00.jpg,nexus2_5_tw_3.00.jpg,nexus2_24_tw_-2.00.jpg,-2,1,3,-1,-2,0,3,-2,0.25,-0.25,4.916666667,5.583333333,0,100,4.916666667,5.583333333,50,1,0.666666667,38,0,0.5
553555587,gridcompare_block,gridcompare_trial,18,38,1054,nexus2_16_tw_-1.00.jpg,nexus2_4_tw_-2.00.jpg,nexus2_12_tw_0.00.jpg,nexus2_3_tw_0.00.jpg,nexus2_22_tw_-1.00.jpg,nexus2_11_tw_-3.00.jpg,nexus2_1_tw_-2.00.jpg,nexus2_21_tw_-1.00.jpg,-1,-2,0,0,-1,-3,-2,-1,-0.75,-1.75,0.916666667,0.916666667,1,101,0.916666667,0.916666667,NA,NA,0,38,1,1
553555587,gridcompare_block,gridcompare_trial,19,38,900,nexus2_7_tw_3.00.jpg,nexus2_12_tw_3.00.jpg,nexus2_13_tw_2.00.jpg,nexus2_4_tw_2.00.jpg,nexus2_21_tw_0.00.jpg,nexus2_2_tw_-1.00.jpg,nexus2_9_tw_-2.00.jpg,nexus2_16_tw_2.00.jpg,3,3,2,2,0,-1,-2,2,2.5,-0.25,0.333333333,2.916666667,0,101,0.333333333,2.916666667,50,0,2.583333333,38,1,2.75
553555587,gridcompare_block,gridcompare_trial,20,38,1152,nexus2_12_tw_-2.00.jpg,nexus2_17_tw_-1.00.jpg,nexus2_25_tw_0.00.jpg,nexus2_23_tw_3.00.jpg,nexus2_1_tw_-1.00.jpg,nexus2_7_tw_0.00.jpg,nexus2_11_tw_1.00.jpg,nexus2_8_tw_-2.00.jpg,-2,-1,0,3,-1,0,1,-2,0,-0.5,4.666666667,1.666666667,0,101,4.666666667,1.666666667,38,1,3,38,1,0.5
553555587,gridcompare_block,gridcompare_trial,21,50,1461,nexus2_19_tw_-1.00.jpg,nexus2_21_tw_3.00.jpg,nexus2_22_tw_3.00.jpg,nexus2_10_tw_0.00.jpg,nexus2_25_tw_-1.00.jpg,nexus2_14_tw_1.00.jpg,nexus2_4_tw_-3.00.jpg,nexus2_11_tw_-2.00.jpg,-1,3,3,0,-1,1,-3,-2,1.25,-1.25,4.25,2.916666667,0,101,4.25,2.916666667,38,0,1.333333333,38,0,2.5
553555587,gridcompare_block,gridcompare_trial,22,38,1612,nexus2_7_tw_3.00.jpg,nexus2_5_tw_-3.00.jpg,nexus2_23_tw_0.00.jpg,nexus2_1_tw_0.00.jpg,nexus2_12_tw_1.00.jpg,nexus2_24_tw_3.00.jpg,nexus2_22_tw_1.00.jpg,nexus2_17_tw_2.00.jpg,3,-3,0,0,1,3,1,2,0,1.75,6,0.916666667,0,101,6,0.916666667,38,1,5.083333333,50,0,1.75
553555587,gridcompare_block,gridcompare_trial,23,50,1725,nexus2_20_tw_-2.00.jpg,nexus2_1_tw_3.00.jpg,nexus2_13_tw_-1.00.jpg,nexus2_5_tw_1.00.jpg,nexus2_21_tw_2.00.jpg,nexus2_12_tw_2.00.jpg,nexus2_10_tw_-3.00.jpg,nexus2_7_tw_-3.00.jpg,-2,3,-1,1,2,2,-3,-3,0.25,-0.5,4.916666667,8.333333333,0,101,4.916666667,8.333333333,50,1,3.416666667,38,0,0.75
553555587,gridcompare_block,gridcompare_trial,24,50,584,nexus2_13_tw_1.00.jpg,nexus2_16_tw_2.00.jpg,nexus2_3_tw_3.00.jpg,nexus2_20_tw_3.00.jpg,nexus2_15_tw_-1.00.jpg,nexus2_22_tw_-2.00.jpg,nexus2_6_tw_2.00.jpg,nexus2_5_tw_2.00.jpg,1,2,3,3,-1,-2,2,2,2.25,0.25,0.916666667,4.25,0,101,0.916666667,4.25,50,1,3.333333333,38,0,2
553555587,gridcompare_block,gridcompare_trial,25,38,1296,nexus2_2_tw_2.00.jpg,nexus2_13_tw_2.00.jpg,nexus2_22_tw_-3.00.jpg,nexus2_19_tw_-2.00.jpg,nexus2_25_tw_1.00.jpg,nexus2_24_tw_2.00.jpg,nexus2_9_tw_1.00.jpg,nexus2_16_tw_-1.00.jpg,2,2,-3,-2,1,2,1,-1,-0.25,0.75,6.916666667,1.583333333,0,101,6.916666667,1.583333333,38,1,5.333333333,50,0,1
553555587,gridcompare_block,gridcompare_trial,26,38,895,nexus2_17_tw_-3.00.jpg,nexus2_21_tw_2.00.jpg,nexus2_12_tw_-3.00.jpg,nexus2_20_tw_-1.00.jpg,nexus2_22_tw_3.00.jpg,nexus2_11_tw_-1.00.jpg,nexus2_7_tw_1.00.jpg,nexus2_1_tw_2.00.jpg,-3,2,-3,-1,3,-1,1,2,-1.25,1.25,5.583333333,2.916666667,0,101,5.583333333,2.916666667,38,1,2.666666667,50,0,2.5
553555587,gridcompare_block,gridcompare_trial,27,50,1341,nexus2_21_tw_-3.00.jpg,nexus2_18_tw_0.00.jpg,nexus2_13_tw_-3.00.jpg,nexus2_1_tw_1.00.jpg,nexus2_12_tw_-1.00.jpg,nexus2_16_tw_-3.00.jpg,nexus2_9_tw_2.00.jpg,nexus2_25_tw_2.00.jpg,-3,0,-3,1,-1,-3,2,2,-1.25,0,4.25,6,0,101,4.25,6,50,1,1.75,50,1,1.25
553555587,gridcompare_block,gridcompare_trial,28,38,1769,nexus2_7_tw_2.00.jpg,nexus2_17_tw_0.00.jpg,nexus2_5_tw_-2.00.jpg,nexus2_13_tw_-2.00.jpg,nexus2_25_tw_1.00.jpg,nexus2_14_tw_-3.00.jpg,nexus2_16_tw_1.00.jpg,nexus2_21_tw_3.00.jpg,2,0,-2,-2,1,-3,1,3,-0.5,0.5,3.666666667,6.333333333,0,101,3.666666667,6.333333333,50,0,2.666666667,50,0,1
553555587,gridcompare_block,gridcompare_trial,29,38,1412,nexus2_14_tw_0.00.jpg,nexus2_8_tw_3.00.jpg,nexus2_22_tw_0.00.jpg,nexus2_9_tw_3.00.jpg,nexus2_18_tw_1.00.jpg,nexus2_13_tw_0.00.jpg,nexus2_7_tw_0.00.jpg,nexus2_23_tw_2.00.jpg,0,3,0,3,1,0,0,2,1.5,0.75,3,0.916666667,0,101,3,0.916666667,38,1,2.083333333,38,1,0.75
553555587,gridcompare_block,gridcompare_trial,30,50,1147,nexus2_22_tw_1.00.jpg,nexus2_2_tw_-3.00.jpg,nexus2_8_tw_1.00.jpg,nexus2_14_tw_3.00.jpg,nexus2_18_tw_2.00.jpg,nexus2_19_tw_-3.00.jpg,nexus2_5_tw_0.00.jpg,nexus2_10_tw_-2.00.jpg,1,-3,1,3,2,-3,0,-2,0.5,-0.75,6.333333333,4.916666667,0,101,6.333333333,4.916666667,38,0,1.416666667,38,0,1.25
553555587,gridcompare_block,gridcompare_trial,31,50,1248,nexus2_20_tw_2.00.jpg,nexus2_10_tw_1.00.jpg,nexus2_18_tw_-1.00.jpg,nexus2_7_tw_-1.00.jpg,nexus2_1_tw_-3.00.jpg,nexus2_8_tw_-3.00.jpg,nexus2_6_tw_3.00.jpg,nexus2_3_tw_2.00.jpg,2,1,-1,-1,-3,-3,3,2,0.25,-0.25,2.25,10.25,0,101,2.25,10.25,50,1,8,38,0,0.5
553555587,gridcompare_block,gridcompare_trial,32,38,2364,nexus2_1_tw_1.00.jpg,nexus2_8_tw_-1.00.jpg,nexus2_17_tw_-2.00.jpg,nexus2_19_tw_1.00.jpg,nexus2_14_tw_2.00.jpg,nexus2_7_tw_-2.00.jpg,nexus2_11_tw_3.00.jpg,nexus2_18_tw_-3.00.jpg,1,-1,-2,1,2,-2,3,-3,-0.25,0,2.25,8.666666667,0,101,2.25,8.666666667,50,0,6.416666667,50,0,0.25
553555587,gridcompare_block,gridcompare_trial,33,50,1761,nexus2_1_tw_-1.00.jpg,nexus2_14_tw_-2.00.jpg,nexus2_7_tw_3.00.jpg,nexus2_18_tw_-2.00.jpg,nexus2_10_tw_2.00.jpg,nexus2_19_tw_0.00.jpg,nexus2_12_tw_-3.00.jpg,nexus2_3_tw_1.00.jpg,-1,-2,3,-2,2,0,-3,1,-0.5,0,5.666666667,4.666666667,0,101,5.666666667,4.666666667,38,0,1,50,1,0.5
553555587,gridcompare_block,gridcompare_trial,34,50,1131,nexus2_17_tw_2.00.jpg,nexus2_18_tw_3.00.jpg,nexus2_7_tw_-1.00.jpg,nexus2_13_tw_3.00.jpg,nexus2_12_tw_-2.00.jpg,nexus2_5_tw_3.00.jpg,nexus2_6_tw_1.00.jpg,nexus2_19_tw_1.00.jpg,2,3,-1,3,-2,3,1,1,1.75,0.75,3.583333333,4.25,0,101,3.583333333,4.25,50,1,0.666666667,38,0,1
553555587,gridcompare_block,gridcompare_trial,35,38,1567,nexus2_25_tw_2.00.jpg,nexus2_9_tw_-3.00.jpg,nexus2_6_tw_0.00.jpg,nexus2_21_tw_-2.00.jpg,nexus2_10_tw_-2.00.jpg,nexus2_18_tw_-2.00.jpg,nexus2_13_tw_2.00.jpg,nexus2_7_tw_1.00.jpg,2,-3,0,-2,-2,-2,2,1,-0.75,-0.25,4.916666667,4.25,0,101,4.916666667,4.25,38,1,0.666666667,50,0,0.5
553555587,gridcompare_block,gridcompare_trial,36,38,1039,nexus2_10_tw_-3.00.jpg,nexus2_17_tw_3.00.jpg,nexus2_14_tw_-1.00.jpg,nexus2_1_tw_2.00.jpg,nexus2_20_tw_1.00.jpg,nexus2_16_tw_3.00.jpg,nexus2_3_tw_2.00.jpg,nexus2_12_tw_0.00.jpg,-3,3,-1,2,1,3,2,0,0.25,1.5,7.583333333,1.666666667,0,101,7.583333333,1.666666667,38,1,5.916666667,50,0,1.25
553555587,gridcompare_block,gridcompare_trial,37,50,1096,nexus2_16_tw_0.00.jpg,nexus2_9_tw_-2.00.jpg,nexus2_14_tw_3.00.jpg,nexus2_6_tw_-2.00.jpg,nexus2_21_tw_-1.00.jpg,nexus2_12_tw_2.00.jpg,nexus2_8_tw_2.00.jpg,nexus2_25_tw_-2.00.jpg,0,-2,3,-2,-1,2,2,-2,-0.25,0.25,5.583333333,4.25,0,101,5.583333333,4.25,38,0,1.333333333,50,1,0.5
553555587,gridcompare_block,gridcompare_trial,38,38,1566,nexus2_6_tw_-1.00.jpg,nexus2_10_tw_1.00.jpg,nexus2_5_tw_0.00.jpg,nexus2_1_tw_0.00.jpg,nexus2_4_tw_2.00.jpg,nexus2_15_tw_2.00.jpg,nexus2_21_tw_1.00.jpg,nexus2_3_tw_-1.00.jpg,-1,1,0,0,2,2,1,-1,0,1,0.666666667,2,0,101,0.666666667,2,50,0,1.333333333,50,0,1
553555587,gridcompare_block,gridcompare_trial,39,38,881,nexus2_25_tw_0.00.jpg,nexus2_23_tw_-3.00.jpg,nexus2_6_tw_-3.00.jpg,nexus2_9_tw_-1.00.jpg,nexus2_17_tw_1.00.jpg,nexus2_7_tw_2.00.jpg,nexus2_20_tw_-2.00.jpg,nexus2_19_tw_3.00.jpg,0,-3,-3,-1,1,2,-2,3,-1.75,1,2.25,4.666666667,0,101,2.25,4.666666667,50,0,2.416666667,50,0,2.75
553555587,gridcompare_block,gridcompare_trial,40,50,1775,nexus2_7_tw_0.00.jpg,nexus2_16_tw_-2.00.jpg,nexus2_5_tw_-3.00.jpg,nexus2_24_tw_-2.00.jpg,nexus2_10_tw_-1.00.jpg,nexus2_21_tw_0.00.jpg,nexus2_6_tw_-3.00.jpg,nexus2_12_tw_3.00.jpg,0,-2,-3,-2,-1,0,-3,3,-1.75,-0.25,1.583333333,6.25,0,101,1.583333333,6.25,50,1,4.666666667,50,1,1.5
553555587,gridcompare_block,gridcompare_trial,41,50,2858,nexus2_24_tw_1.00.jpg,nexus2_2_tw_0.00.jpg,nexus2_17_tw_-1.00.jpg,nexus2_4_tw_-2.00.jpg,nexus2_8_tw_-2.00.jpg,nexus2_13_tw_3.00.jpg,nexus2_5_tw_-1.00.jpg,nexus2_21_tw_-2.00.jpg,1,0,-1,-2,-2,3,-1,-2,-0.5,-0.5,1.666666667,5.666666667,0,101,1.666666667,5.666666667,50,1,4,NA,NA,0
553555587,gridcompare_block,gridcompare_trial,42,50,1257,nexus2_8_tw_0.00.jpg,nexus2_15_tw_1.00.jpg,nexus2_16_tw_-2.00.jpg,nexus2_1_tw_3.00.jpg,nexus2_25_tw_-3.00.jpg,nexus2_9_tw_0.00.jpg,nexus2_20_tw_3.00.jpg,nexus2_4_tw_1.00.jpg,0,1,-2,3,-3,0,3,1,0.5,0.25,4.333333333,6.25,0,101,4.333333333,6.25,50,1,1.916666667,38,0,0.25
553555587,gridcompare_block,gridcompare_trial,43,38,1255,nexus2_10_tw_0.00.jpg,nexus2_24_tw_-1.00.jpg,nexus2_19_tw_-3.00.jpg,nexus2_5_tw_1.00.jpg,nexus2_4_tw_3.00.jpg,nexus2_3_tw_-2.00.jpg,nexus2_21_tw_0.00.jpg,nexus2_11_tw_-1.00.jpg,0,-1,-3,1,3,-2,0,-1,-0.75,0,2.916666667,4.666666667,0,101,2.916666667,4.666666667,50,0,1.75,50,0,0.75
553555587,gridcompare_block,gridcompare_trial,44,38,1046,nexus2_22_tw_-2.00.jpg,nexus2_13_tw_-1.00.jpg,nexus2_15_tw_-3.00.jpg,nexus2_24_tw_-3.00.jpg,nexus2_1_tw_-3.00.jpg,nexus2_20_tw_0.00.jpg,nexus2_10_tw_3.00.jpg,nexus2_16_tw_0.00.jpg,-2,-1,-3,-3,-3,0,3,0,-2.25,0,0.916666667,6,0,101,0.916666667,6,50,0,5.083333333,50,0,2.25
553555587,gridcompare_block,gridcompare_trial,45,38,1116,nexus2_11_tw_-3.00.jpg,nexus2_17_tw_3.00.jpg,nexus2_15_tw_-1.00.jpg,nexus2_21_tw_-1.00.jpg,nexus2_1_tw_-2.00.jpg,nexus2_22_tw_-1.00.jpg,nexus2_7_tw_-2.00.jpg,nexus2_23_tw_-2.00.jpg,-3,3,-1,-1,-2,-1,-2,-2,-0.5,-1.75,6.333333333,0.25,0,101,6.333333333,0.25,38,1,6.083333333,38,1,1.25
553555587,gridcompare_block,gridcompare_trial,46,50,1602,nexus2_11_tw_2.00.jpg,nexus2_7_tw_-3.00.jpg,nexus2_23_tw_1.00.jpg,nexus2_13_tw_-2.00.jpg,nexus2_20_tw_-3.00.jpg,nexus2_14_tw_1.00.jpg,nexus2_9_tw_1.00.jpg,nexus2_4_tw_-1.00.jpg,2,-3,1,-2,-3,1,1,-1,-0.5,-0.5,5.666666667,3.666666667,0,101,5.666666667,3.666666667,38,0,2,NA,NA,0
553555587,gridcompare_block,gridcompare_trial,47,50,1251,nexus2_1_tw_2.00.jpg,nexus2_14_tw_-1.00.jpg,nexus2_11_tw_3.00.jpg,nexus2_7_tw_-1.00.jpg,nexus2_3_tw_-3.00.jpg,nexus2_16_tw_2.00.jpg,nexus2_17_tw_2.00.jpg,nexus2_25_tw_3.00.jpg,2,-1,3,-1,-3,2,2,3,0.75,1,4.25,7.333333333,0,101,4.25,7.333333333,50,1,3.083333333,50,1,0.25
553555587,gridcompare_block,gridcompare_trial,48,50,1618,nexus2_16_tw_-1.00.jpg,nexus2_14_tw_-2.00.jpg,nexus2_9_tw_2.00.jpg,nexus2_22_tw_2.00.jpg,nexus2_13_tw_0.00.jpg,nexus2_19_tw_-2.00.jpg,nexus2_11_tw_0.00.jpg,nexus2_8_tw_-1.00.jpg,-1,-2,2,2,0,-2,0,-1,0.25,-0.75,4.25,0.916666667,0,101,4.25,0.916666667,38,0,3.333333333,38,0,1
553555587,gridcompare_block,gridcompare_trial,49,50,1166,nexus2_20_tw_-1.00.jpg,nexus2_3_tw_3.00.jpg,nexus2_19_tw_2.00.jpg,nexus2_10_tw_3.00.jpg,nexus2_16_tw_1.00.jpg,nexus2_12_tw_1.00.jpg,nexus2_1_tw_3.00.jpg,nexus2_2_tw_-1.00.jpg,-1,3,2,3,1,1,3,-1,1.75,1,3.583333333,2.666666667,0,101,3.583333333,2.666666667,38,0,0.916666667,38,0,0.75
553555587,gridcompare_block,gridcompare_trial,50,38,1204,nexus2_15_tw_0.00.jpg,nexus2_16_tw_3.00.jpg,nexus2_1_tw_-1.00.jpg,nexus2_4_tw_0.00.jpg,nexus2_12_tw_2.00.jpg,nexus2_11_tw_-2.00.jpg,nexus2_3_tw_0.00.jpg,nexus2_23_tw_3.00.jpg,0,3,-1,0,2,-2,0,3,0.5,0.75,3,4.916666667,0,101,3,4.916666667,50,0,1.916666667,50,0,0.25
553555587,gridcompare_block,gridcompare_trial,51,50,2389,nexus2_8_tw_2.00.jpg,nexus2_6_tw_-1.00.jpg,nexus2_2_tw_3.00.jpg,nexus2_3_tw_1.00.jpg,nexus2_16_tw_-3.00.jpg,nexus2_10_tw_2.00.jpg,nexus2_17_tw_-2.00.jpg,nexus2_15_tw_3.00.jpg,2,-1,3,1,-3,2,-2,3,1.25,0,2.916666667,8.666666667,0,101,2.916666667,8.666666667,50,1,5.75,38,0,1.25
553555587,gridcompare_block,gridcompare_trial,52,38,1511,nexus2_8_tw_-3.00.jpg,nexus2_2_tw_-2.00.jpg,nexus2_24_tw_0.00.jpg,nexus2_6_tw_0.00.jpg,nexus2_25_tw_-1.00.jpg,nexus2_22_tw_2.00.jpg,nexus2_7_tw_2.00.jpg,nexus2_20_tw_-2.00.jpg,-3,-2,0,0,-1,2,2,-2,-1.25,0.25,2.25,4.25,0,101,2.25,4.25,50,0,2,50,0,1.5
553555587,gridcompare_block,gridcompare_trial,53,50,1821,nexus2_24_tw_-3.00.jpg,nexus2_14_tw_2.00.jpg,nexus2_18_tw_2.00.jpg,nexus2_15_tw_-2.00.jpg,nexus2_11_tw_1.00.jpg,nexus2_21_tw_-3.00.jpg,nexus2_9_tw_0.00.jpg,nexus2_19_tw_-1.00.jpg,-3,2,2,-2,1,-3,0,-1,-0.25,-0.75,6.916666667,2.916666667,0,101,6.916666667,2.916666667,38,0,4,38,0,0.5
553555587,gridcompare_block,gridcompare_trial,54,50,2117,nexus2_11_tw_0.00.jpg,nexus2_12_tw_1.00.jpg,nexus2_5_tw_2.00.jpg,nexus2_21_tw_3.00.jpg,nexus2_15_tw_-1.00.jpg,nexus2_1_tw_-2.00.jpg,nexus2_17_tw_0.00.jpg,nexus2_3_tw_3.00.jpg,0,1,2,3,-1,-2,0,3,1.5,0,1.666666667,4.666666667,0,101,1.666666667,4.666666667,50,1,3,38,0,1.5
553555587,gridcompare_block,gridcompare_trial,55,38,1441,nexus2_1_tw_-3.00.jpg,nexus2_24_tw_3.00.jpg,nexus2_10_tw_-1.00.jpg,nexus2_25_tw_0.00.jpg,nexus2_20_tw_2.00.jpg,nexus2_23_tw_-1.00.jpg,nexus2_22_tw_0.00.jpg,nexus2_5_tw_-2.00.jpg,-3,3,-1,0,2,-1,0,-2,-0.25,-0.25,6.25,2.916666667,0,101,6.25,2.916666667,38,1,3.333333333,NA,NA,0
553555587,gridcompare_block,gridcompare_trial,56,50,889,nexus2_1_tw_1.00.jpg,nexus2_25_tw_2.00.jpg,nexus2_20_tw_3.00.jpg,nexus2_2_tw_2.00.jpg,nexus2_5_tw_-2.00.jpg,nexus2_6_tw_2.00.jpg,nexus2_10_tw_1.00.jpg,nexus2_15_tw_-3.00.jpg,1,2,3,2,-2,2,1,-3,2,-0.5,0.666666667,5.666666667,0,101,0.666666667,5.666666667,50,1,5,38,0,2.5
553555587,gridcompare_block,gridcompare_trial,57,50,2039,nexus2_14_tw_0.00.jpg,nexus2_15_tw_2.00.jpg,nexus2_20_tw_0.00.jpg,nexus2_1_tw_0.00.jpg,nexus2_25_tw_1.00.jpg,nexus2_12_tw_-3.00.jpg,nexus2_19_tw_-3.00.jpg,nexus2_16_tw_3.00.jpg,0,2,0,0,1,-3,-3,3,0.5,-0.5,1,9,0,101,1,9,50,1,8,38,0,1
553555587,gridcompare_block,gridcompare_trial,58,38,1893,nexus2_22_tw_-1.00.jpg,nexus2_15_tw_3.00.jpg,nexus2_3_tw_2.00.jpg,nexus2_24_tw_-1.00.jpg,nexus2_16_tw_2.00.jpg,nexus2_20_tw_-3.00.jpg,nexus2_9_tw_-2.00.jpg,nexus2_10_tw_-2.00.jpg,-1,3,2,-1,2,-3,-2,-2,0.75,-1.25,4.25,4.916666667,0,101,4.25,4.916666667,50,0,0.666666667,38,1,2
553555587,gridcompare_block,gridcompare_trial,59,50,1085,nexus2_16_tw_0.00.jpg,nexus2_11_tw_-2.00.jpg,nexus2_23_tw_-3.00.jpg,nexus2_5_tw_0.00.jpg,nexus2_10_tw_-3.00.jpg,nexus2_13_tw_-3.00.jpg,nexus2_9_tw_-1.00.jpg,nexus2_15_tw_0.00.jpg,0,-2,-3,0,-3,-3,-1,0,-1.25,-1.75,2.25,2.25,1,102,2.25,2.25,NA,NA,0,38,0,0.5
553555587,gridcompare_block,gridcompare_trial,60,50,1122,nexus2_1_tw_-2.00.jpg,nexus2_21_tw_1.00.jpg,nexus2_24_tw_2.00.jpg,nexus2_16_tw_-1.00.jpg,nexus2_25_tw_-3.00.jpg,nexus2_2_tw_1.00.jpg,nexus2_20_tw_1.00.jpg,nexus2_17_tw_-1.00.jpg,-2,1,2,-1,-3,1,1,-1,0,-0.5,3.333333333,3.666666667,0,102,3.333333333,3.666666667,50,1,0.333333333,38,0,0.5
553555587,gridcompare_block,gridcompare_trial,61,50,1622,nexus2_2_tw_-2.00.jpg,nexus2_19_tw_-1.00.jpg,nexus2_5_tw_1.00.jpg,nexus2_10_tw_0.00.jpg,nexus2_3_tw_0.00.jpg,nexus2_1_tw_3.00.jpg,nexus2_11_tw_-3.00.jpg,nexus2_25_tw_-1.00.jpg,-2,-1,1,0,0,3,-3,-1,-0.5,-0.25,1.666666667,6.25,0,102,1.666666667,6.25,50,1,4.583333333,50,1,0.25
553555587,gridcompare_block,gridcompare_trial,62,50,1158,nexus2_7_tw_0.00.jpg,nexus2_20_tw_-2.00.jpg,nexus2_5_tw_-3.00.jpg,nexus2_2_tw_2.00.jpg,nexus2_24_tw_-2.00.jpg,nexus2_8_tw_1.00.jpg,nexus2_22_tw_3.00.jpg,nexus2_4_tw_-2.00.jpg,0,-2,-3,2,-2,1,3,-2,-0.75,0,4.916666667,6,0,102,4.916666667,6,50,1,1.083333333,50,1,0.75
553555587,gridcompare_block,gridcompare_trial,63,50,1851,nexus2_4_tw_1.00.jpg,nexus2_22_tw_-3.00.jpg,nexus2_13_tw_1.00.jpg,nexus2_9_tw_3.00.jpg,nexus2_17_tw_-3.00.jpg,nexus2_12_tw_-2.00.jpg,nexus2_21_tw_2.00.jpg,nexus2_23_tw_0.00.jpg,1,-3,1,3,-3,-2,2,0,0.5,-0.75,6.333333333,4.916666667,0,102,6.333333333,4.916666667,38,0,1.416666667,38,0,1.25
553555587,gridcompare_block,gridcompare_trial,64,38,1138,nexus2_14_tw_-3.00.jpg,nexus2_15_tw_1.00.jpg,nexus2_3_tw_1.00.jpg,nexus2_21_tw_1.00.jpg,nexus2_18_tw_1.00.jpg,nexus2_1_tw_-3.00.jpg,nexus2_6_tw_3.00.jpg,nexus2_12_tw_3.00.jpg,-3,1,1,1,1,-3,3,3,0,1,4,8,0,102,4,8,50,0,4,50,0,1
553555587,gridcompare_block,gridcompare_trial,65,38,1974,nexus2_13_tw_3.00.jpg,nexus2_7_tw_-3.00.jpg,nexus2_20_tw_-3.00.jpg,nexus2_24_tw_1.00.jpg,nexus2_4_tw_-1.00.jpg,nexus2_3_tw_-3.00.jpg,nexus2_12_tw_-1.00.jpg,nexus2_10_tw_-2.00.jpg,3,-3,-3,1,-1,-3,-1,-2,-0.5,-1.75,9,0.916666667,0,102,9,0.916666667,38,1,8.083333333,38,1,1.25
553555587,gridcompare_block,gridcompare_trial,66,38,1096,nexus2_23_tw_-2.00.jpg,nexus2_1_tw_-1.00.jpg,nexus2_2_tw_-1.00.jpg,nexus2_19_tw_2.00.jpg,nexus2_9_tw_1.00.jpg,nexus2_25_tw_3.00.jpg,nexus2_14_tw_-1.00.jpg,nexus2_16_tw_-2.00.jpg,-2,-1,-1,2,1,3,-1,-2,-0.5,0.25,3,4.916666667,0,102,3,4.916666667,50,0,1.916666667,50,0,0.75
553555587,gridcompare_block,gridcompare_trial,67,50,1150,nexus2_23_tw_2.00.jpg,nexus2_24_tw_0.00.jpg,nexus2_20_tw_3.00.jpg,nexus2_15_tw_-2.00.jpg,nexus2_7_tw_3.00.jpg,nexus2_22_tw_1.00.jpg,nexus2_18_tw_0.00.jpg,nexus2_4_tw_-3.00.jpg,2,0,3,-2,3,1,0,-3,0.75,0.25,4.916666667,6.25,0,102,4.916666667,6.25,50,1,1.333333333,38,0,0.5
553555587,gridcompare_block,gridcompare_trial,68,38,1761,nexus2_7_tw_-2.00.jpg,nexus2_4_tw_2.00.jpg,nexus2_19_tw_0.00.jpg,nexus2_23_tw_-2.00.jpg,nexus2_14_tw_2.00.jpg,nexus2_13_tw_-3.00.jpg,nexus2_12_tw_0.00.jpg,nexus2_16_tw_-3.00.jpg,-2,2,0,-2,2,-3,0,-3,-0.5,-1,3.666666667,6,0,102,3.666666667,6,50,0,2.333333333,38,1,0.5
553555587,gridcompare_block,gridcompare_trial,69,50,1516,nexus2_10_tw_3.00.jpg,nexus2_3_tw_-1.00.jpg,nexus2_1_tw_0.00.jpg,nexus2_20_tw_-1.00.jpg,nexus2_18_tw_-3.00.jpg,nexus2_2_tw_3.00.jpg,nexus2_9_tw_-3.00.jpg,nexus2_4_tw_0.00.jpg,3,-1,0,-1,-3,3,-3,0,0.25,-0.75,3.583333333,8.25,0,102,3.583333333,8.25,50,1,4.666666667,38,0,1
553555587,gridcompare_block,gridcompare_trial,70,50,1505,nexus2_25_tw_-2.00.jpg,nexus2_7_tw_1.00.jpg,nexus2_19_tw_3.00.jpg,nexus2_10_tw_2.00.jpg,nexus2_22_tw_-2.00.jpg,nexus2_4_tw_3.00.jpg,nexus2_24_tw_3.00.jpg,nexus2_18_tw_-1.00.jpg,-2,1,3,2,-2,3,3,-1,1,0.75,4.666666667,6.916666667,0,102,4.666666667,6.916666667,50,1,2.25,38,0,0.25
553555587,gridcompare_block,gridcompare_trial,71,38,1428,nexus2_14_tw_-3.00.jpg,nexus2_20_tw_1.00.jpg,nexus2_22_tw_1.00.jpg,nexus2_1_tw_2.00.jpg,nexus2_5_tw_-1.00.jpg,nexus2_12_tw_-2.00.jpg,nexus2_4_tw_0.00.jpg,nexus2_11_tw_-1.00.jpg,-3,1,1,2,-1,-2,0,-1,0.25,-1,4.916666667,0.666666667,0,102,4.916666667,0.666666667,38,1,4.25,38,1,1.25
553555587,gridcompare_block,gridcompare_trial,72,38,797,nexus2_2_tw_1.00.jpg,nexus2_7_tw_-3.00.jpg,nexus2_6_tw_-2.00.jpg,nexus2_15_tw_2.00.jpg,nexus2_25_tw_-3.00.jpg,nexus2_13_tw_1.00.jpg,nexus2_3_tw_-2.00.jpg,nexus2_16_tw_1.00.jpg,1,-3,-2,2,-3,1,-2,1,-0.5,-0.75,5.666666667,4.25,0,102,5.666666667,4.25,38,1,1.416666667,38,1,0.25
553555587,gridcompare_block,gridcompare_trial,73,38,1486,nexus2_13_tw_2.00.jpg,nexus2_3_tw_-1.00.jpg,nexus2_15_tw_-1.00.jpg,nexus2_4_tw_-2.00.jpg,nexus2_1_tw_1.00.jpg,nexus2_19_tw_-2.00.jpg,nexus2_22_tw_-2.00.jpg,nexus2_17_tw_1.00.jpg,2,-1,-1,-2,1,-2,-2,1,-0.5,-0.5,3,3,1,103,3,3,NA,NA,0,NA,NA,0
553555587,gridcompare_block,gridcompare_trial,74,50,1829,nexus2_21_tw_3.00.jpg,nexus2_23_tw_-3.00.jpg,nexus2_18_tw_3.00.jpg,nexus2_11_tw_3.00.jpg,nexus2_5_tw_3.00.jpg,nexus2_22_tw_-3.00.jpg,nexus2_2_tw_0.00.jpg,nexus2_1_tw_-1.00.jpg,3,-3,3,3,3,-3,0,-1,1.5,-0.25,9,6.25,0,103,9,6.25,38,0,2.75,38,0,1.75
553555587,gridcompare_block,gridcompare_trial,75,38,2189,nexus2_6_tw_1.00.jpg,nexus2_2_tw_-3.00.jpg,nexus2_5_tw_2.00.jpg,nexus2_22_tw_-1.00.jpg,nexus2_13_tw_0.00.jpg,nexus2_20_tw_0.00.jpg,nexus2_19_tw_1.00.jpg,nexus2_18_tw_-3.00.jpg,1,-3,2,-1,0,0,1,-3,-0.25,-0.5,4.916666667,3,0,103,4.916666667,3,38,1,1.916666667,38,1,0.25
553555587,gridcompare_block,gridcompare_trial,76,50,1607,nexus2_8_tw_3.00.jpg,nexus2_5_tw_-2.00.jpg,nexus2_23_tw_3.00.jpg,nexus2_11_tw_1.00.jpg,nexus2_1_tw_-3.00.jpg,nexus2_24_tw_0.00.jpg,nexus2_7_tw_3.00.jpg,nexus2_13_tw_-1.00.jpg,3,-2,3,1,-3,0,3,-1,1.25,-0.25,5.583333333,6.25,0,103,5.583333333,6.25,50,1,0.666666667,38,0,1.5
553555587,gridcompare_block,gridcompare_trial,77,38,1592,nexus2_4_tw_3.00.jpg,nexus2_19_tw_-3.00.jpg,nexus2_24_tw_-2.00.jpg,nexus2_15_tw_-2.00.jpg,nexus2_10_tw_1.00.jpg,nexus2_9_tw_2.00.jpg,nexus2_25_tw_2.00.jpg,nexus2_3_tw_3.00.jpg,3,-3,-2,-2,1,2,2,3,-1,2,7.333333333,0.666666667,0,103,7.333333333,0.666666667,38,1,6.666666667,50,0,3
553555587,gridcompare_block,gridcompare_trial,78,38,937,nexus2_25_tw_-2.00.jpg,nexus2_1_tw_1.00.jpg,nexus2_6_tw_0.00.jpg,nexus2_10_tw_0.00.jpg,nexus2_4_tw_1.00.jpg,nexus2_8_tw_3.00.jpg,nexus2_14_tw_3.00.jpg,nexus2_13_tw_-2.00.jpg,-2,1,0,0,1,3,3,-2,-0.25,1.25,1.583333333,5.583333333,0,103,1.583333333,5.583333333,50,0,4,50,0,1.5
553555587,gridcompare_block,gridcompare_trial,79,50,1365,nexus2_23_tw_0.00.jpg,nexus2_11_tw_2.00.jpg,nexus2_20_tw_2.00.jpg,nexus2_21_tw_-3.00.jpg,nexus2_3_tw_2.00.jpg,nexus2_1_tw_2.00.jpg,nexus2_12_tw_-1.00.jpg,nexus2_13_tw_0.00.jpg,0,2,2,-3,2,2,-1,0,0.25,0.75,5.583333333,2.25,0,103,5.583333333,2.25,38,0,3.333333333,50,1,0.5
553555587,gridcompare_block,gridcompare_trial,80,50,2064,nexus2_13_tw_1.00.jpg,nexus2_3_tw_-2.00.jpg,nexus2_22_tw_3.00.jpg,nexus2_12_tw_2.00.jpg,nexus2_9_tw_-2.00.jpg,nexus2_4_tw_2.00.jpg,nexus2_15_tw_0.00.jpg,nexus2_1_tw_0.00.jpg,1,-2,3,2,-2,2,0,0,1,0,4.666666667,2.666666667,0,103,4.666666667,2.666666667,38,0,2,38,0,1
553555587,gridcompare_block,gridcompare_trial,81,50,2175,nexus2_20_tw_-2.00.jpg,nexus2_23_tw_2.00.jpg,nexus2_22_tw_2.00.jpg,nexus2_21_tw_0.00.jpg,nexus2_11_tw_3.00.jpg,nexus2_19_tw_0.00.jpg,nexus2_17_tw_1.00.jpg,nexus2_24_tw_-3.00.jpg,-2,2,2,0,3,0,1,-3,0.5,0.25,3.666666667,6.25,0,103,3.666666667,6.25,50,1,2.583333333,38,0,0.25
553555587,gridcompare_block,gridcompare_trial,82,38,3114,nexus2_7_tw_-1.00.jpg,nexus2_16_tw_1.00.jpg,nexus2_8_tw_0.00.jpg,nexus2_12_tw_3.00.jpg,nexus2_17_tw_2.00.jpg,nexus2_20_tw_1.00.jpg,nexus2_3_tw_0.00.jpg,nexus2_9_tw_3.00.jpg,-1,1,0,3,2,1,0,3,0.75,1.5,2.916666667,1.666666667,0,103,2.916666667,1.666666667,38,1,1.25,50,0,0.75
553555587,gridcompare_block,gridcompare_trial,83,50,1726,nexus2_4_tw_-3.00.jpg,nexus2_6_tw_-2.00.jpg,nexus2_21_tw_-1.00.jpg,nexus2_13_tw_-3.00.jpg,nexus2_14_tw_1.00.jpg,nexus2_9_tw_1.00.jpg,nexus2_11_tw_0.00.jpg,nexus2_17_tw_-2.00.jpg,-3,-2,-1,-3,1,1,0,-2,-2.25,0,0.916666667,2,0,103,0.916666667,2,50,1,1.083333333,50,1,2.25
553555587,gridcompare_block,gridcompare_trial,84,38,1259,nexus2_4_tw_-1.00.jpg,nexus2_23_tw_1.00.jpg,nexus2_6_tw_-3.00.jpg,nexus2_20_tw_-1.00.jpg,nexus2_1_tw_3.00.jpg,nexus2_16_tw_3.00.jpg,nexus2_18_tw_-1.00.jpg,nexus2_2_tw_-2.00.jpg,-1,1,-3,-1,3,3,-1,-2,-1,0.75,2.666666667,6.916666667,0,103,2.666666667,6.916666667,50,0,4.25,50,0,1.75
553555587,gridcompare_block,gridcompare_trial,85,38,1562,nexus2_9_tw_0.00.jpg,nexus2_6_tw_-1.00.jpg,nexus2_12_tw_-3.00.jpg,nexus2_5_tw_1.00.jpg,nexus2_15_tw_1.00.jpg,nexus2_21_tw_2.00.jpg,nexus2_17_tw_-3.00.jpg,nexus2_18_tw_-2.00.jpg,0,-1,-3,1,1,2,-3,-2,-0.75,-0.5,2.916666667,5.666666667,0,103,2.916666667,5.666666667,50,0,2.75,50,0,0.25
553555587,gridcompare_block,gridcompare_trial,86,50,1982,nexus2_7_tw_-2.00.jpg,nexus2_14_tw_0.00.jpg,nexus2_1_tw_-2.00.jpg,nexus2_8_tw_-2.00.jpg,nexus2_4_tw_-2.00.jpg,nexus2_9_tw_-1.00.jpg,nexus2_21_tw_-2.00.jpg,nexus2_15_tw_-3.00.jpg,-2,0,-2,-2,-2,-1,-2,-3,-1.5,-2,1,0.666666667,0,103,1,0.666666667,38,0,0.333333333,38,0,0.5
553555587,gridcompare_block,gridcompare_trial,87,38,1215,nexus2_23_tw_-1.00.jpg,nexus2_21_tw_-2.00.jpg,nexus2_22_tw_0.00.jpg,nexus2_15_tw_3.00.jpg,nexus2_19_tw_-2.00.jpg,nexus2_5_tw_0.00.jpg,nexus2_6_tw_2.00.jpg,nexus2_8_tw_-1.00.jpg,-1,-2,0,3,-2,0,2,-1,0,-0.25,4.666666667,2.916666667,0,103,4.666666667,2.916666667,38,1,1.75,38,1,0.25
553555587,gridcompare_block,gridcompare_trial,88,50,1391,nexus2_1_tw_2.00.jpg,nexus2_23_tw_1.00.jpg,nexus2_6_tw_1.00.jpg,nexus2_24_tw_-1.00.jpg,nexus2_15_tw_1.00.jpg,nexus2_10_tw_-3.00.jpg,nexus2_20_tw_3.00.jpg,nexus2_12_tw_0.00.jpg,2,1,1,-1,1,-3,3,0,0.75,0.25,1.583333333,6.25,0,103,1.583333333,6.25,50,1,4.666666667,38,0,0.5
553555587,gridcompare_block,gridcompare_trial,89,50,1961,nexus2_7_tw_1.00.jpg,nexus2_24_tw_1.00.jpg,nexus2_16_tw_-3.00.jpg,nexus2_20_tw_2.00.jpg,nexus2_8_tw_-3.00.jpg,nexus2_14_tw_-2.00.jpg,nexus2_9_tw_-3.00.jpg,nexus2_22_tw_-2.00.jpg,1,1,-3,2,-3,-2,-3,-2,0.25,-2.5,4.916666667,0.333333333,0,103,4.916666667,0.333333333,38,0,4.583333333,38,0,2.75
553555587,gridcompare_block,gridcompare_trial,90,38,1868,nexus2_2_tw_2.00.jpg,nexus2_22_tw_0.00.jpg,nexus2_21_tw_2.00.jpg,nexus2_12_tw_1.00.jpg,nexus2_6_tw_3.00.jpg,nexus2_20_tw_-3.00.jpg,nexus2_13_tw_-2.00.jpg,nexus2_15_tw_-1.00.jpg,2,0,2,1,3,-3,-2,-1,1.25,-0.75,0.916666667,6.916666667,0,103,0.916666667,6.916666667,50,0,6,38,1,2
553555587,gridcompare_block,gridcompare_trial,91,38,1779,nexus2_17_tw_0.00.jpg,nexus2_8_tw_1.00.jpg,nexus2_6_tw_0.00.jpg,nexus2_11_tw_-3.00.jpg,nexus2_18_tw_1.00.jpg,nexus2_9_tw_3.00.jpg,nexus2_13_tw_-1.00.jpg,nexus2_23_tw_-1.00.jpg,0,1,0,-3,1,3,-1,-1,-0.5,0.5,3,3.666666667,0,103,3,3.666666667,50,0,0.666666667,50,0,1
553555587,gridcompare_block,gridcompare_trial,92,50,2045,nexus2_23_tw_-3.00.jpg,nexus2_14_tw_-1.00.jpg,nexus2_22_tw_2.00.jpg,nexus2_9_tw_2.00.jpg,nexus2_15_tw_2.00.jpg,nexus2_12_tw_-2.00.jpg,nexus2_24_tw_2.00.jpg,nexus2_17_tw_3.00.jpg,-3,-1,2,2,2,-2,2,3,0,1.25,6,4.916666667,0,103,6,4.916666667,38,0,1.083333333,50,1,1.25
553555587,gridcompare_block,gridcompare_trial,93,50,2620,nexus2_17_tw_-1.00.jpg,nexus2_8_tw_2.00.jpg,nexus2_5_tw_-3.00.jpg,nexus2_13_tw_2.00.jpg,nexus2_19_tw_1.00.jpg,nexus2_10_tw_-1.00.jpg,nexus2_15_tw_-3.00.jpg,nexus2_2_tw_0.00.jpg,-1,2,-3,2,1,-1,-3,0,0,-0.75,6,2.916666667,0,103,6,2.916666667,38,0,3.083333333,38,0,0.75
553555587,gridcompare_block,gridcompare_trial,94,38,1701,nexus2_7_tw_2.00.jpg,nexus2_24_tw_-1.00.jpg,nexus2_1_tw_-1.00.jpg,nexus2_10_tw_2.00.jpg,nexus2_6_tw_3.00.jpg,nexus2_13_tw_3.00.jpg,nexus2_16_tw_-2.00.jpg,nexus2_19_tw_-1.00.jpg,2,-1,-1,2,3,3,-2,-1,0.5,0.75,3,6.916666667,0,103,3,6.916666667,50,0,3.916666667,50,0,0.25
553555587,gridcompare_block,gridcompare_trial,95,50,1138,nexus2_17_tw_-1.00.jpg,nexus2_15_tw_0.00.jpg,nexus2_24_tw_-2.00.jpg,nexus2_25_tw_-1.00.jpg,nexus2_9_tw_-2.00.jpg,nexus2_21_tw_-1.00.jpg,nexus2_6_tw_1.00.jpg,nexus2_4_tw_-3.00.jpg,-1,0,-2,-1,-2,-1,1,-3,-1,-1.25,0.666666667,2.916666667,0,103,0.666666667,2.916666667,50,1,2.25,38,0,0.25
553555587,gridcompare_block,gridcompare_trial,96,38,1798,nexus2_13_tw_0.00.jpg,nexus2_12_tw_-1.00.jpg,nexus2_10_tw_0.00.jpg,nexus2_1_tw_3.00.jpg,nexus2_7_tw_0.00.jpg,nexus2_22_tw_3.00.jpg,nexus2_20_tw_0.00.jpg,nexus2_16_tw_2.00.jpg,0,-1,0,3,0,3,0,2,0.5,1.25,3,2.25,0,103,3,2.25,38,1,0.75,50,0,0.75
553555587,gridcompare_block,gridcompare_trial,97,38,2527,nexus2_12_tw_0.00.jpg,nexus2_4_tw_-1.00.jpg,nexus2_17_tw_3.00.jpg,nexus2_13_tw_-3.00.jpg,nexus2_25_tw_0.00.jpg,nexus2_11_tw_2.00.jpg,nexus2_10_tw_-2.00.jpg,nexus2_21_tw_1.00.jpg,0,-1,3,-3,0,2,-2,1,-0.25,0.25,6.25,2.916666667,0,103,6.25,2.916666667,38,1,3.333333333,50,0,0.5
553555587,gridcompare_block,gridcompare_trial,98,38,1595,nexus2_7_tw_3.00.jpg,nexus2_23_tw_-2.00.jpg,nexus2_15_tw_-2.00.jpg,nexus2_2_tw_3.00.jpg,nexus2_21_tw_-3.00.jpg,nexus2_18_tw_0.00.jpg,nexus2_12_tw_2.00.jpg,nexus2_19_tw_2.00.jpg,3,-2,-2,3,-3,0,2,2,0.5,0.25,8.333333333,5.583333333,0,103,8.333333333,5.583333333,38,1,2.75,38,1,0.25
553555587,gridcompare_block,gridcompare_trial,99,50,1757,nexus2_17_tw_-2.00.jpg,nexus2_15_tw_3.00.jpg,nexus2_6_tw_-3.00.jpg,nexus2_2_tw_-1.00.jpg,nexus2_10_tw_-3.00.jpg,nexus2_25_tw_3.00.jpg,nexus2_1_tw_-2.00.jpg,nexus2_3_tw_1.00.jpg,-2,3,-3,-1,-3,3,-2,1,-0.75,-0.25,6.916666667,7.583333333,0,103,6.916666667,7.583333333,50,1,0.666666667,50,1,0.5
553555587,gridcompare_block,gridcompare_trial,100,38,1432,nexus2_4_tw_1.00.jpg,nexus2_24_tw_3.00.jpg,nexus2_19_tw_3.00.jpg,nexus2_5_tw_2.00.jpg,nexus2_21_tw_0.00.jpg,nexus2_8_tw_2.00.jpg,nexus2_12_tw_1.00.jpg,nexus2_7_tw_-3.00.jpg,1,3,3,2,0,2,1,-3,2.25,0,0.916666667,4.666666667,0,103,0.916666667,4.666666667,50,0,3.75,38,1,2.25
553555587,gridcompare_block,gridcompare_trial,101,50,2895,nexus2_15_tw_3.00.jpg,nexus2_2_tw_-3.00.jpg,nexus2_17_tw_2.00.jpg,nexus2_20_tw_1.00.jpg,nexus2_1_tw_1.00.jpg,nexus2_5_tw_-1.00.jpg,nexus2_12_tw_-3.00.jpg,nexus2_21_tw_3.00.jpg,3,-3,2,1,1,-1,-3,3,0.75,0,6.916666667,6.666666667,0,103,6.916666667,6.666666667,38,0,0.25,38,0,0.75
553555587,gridcompare_block,gridcompare_trial,102,38,2013,nexus2_6_tw_-2.00.jpg,nexus2_4_tw_3.00.jpg,nexus2_8_tw_-3.00.jpg,nexus2_21_tw_3.00.jpg,nexus2_15_tw_-3.00.jpg,nexus2_9_tw_-3.00.jpg,nexus2_13_tw_-1.00.jpg,nexus2_14_tw_3.00.jpg,-2,3,-3,3,-3,-3,-1,3,0.25,-1,10.25,8,0,103,10.25,8,38,1,2.25,38,1,1.25
553555587,gridcompare_block,gridcompare_trial,103,38,2174,nexus2_22_tw_-1.00.jpg,nexus2_21_tw_0.00.jpg,nexus2_19_tw_2.00.jpg,nexus2_10_tw_3.00.jpg,nexus2_20_tw_-3.00.jpg,nexus2_15_tw_-2.00.jpg,nexus2_5_tw_3.00.jpg,nexus2_24_tw_2.00.jpg,-1,0,2,3,-3,-2,3,2,1,0,3.333333333,8.666666667,0,103,3.333333333,8.666666667,50,0,5.333333333,38,1,1
553555587,expt_end,expt_end,1,57,4016,0,0,0,0,0,0,0,0,-1,0,2,3,-3,-2,3,2,1,0,3.333333333,8.666666667,0,103,3.333333333,8.666666667,50,0,5.333333333,38,0,1
636944079,main_instructions,main_instructions1,1,57,18433,0,0,0,0,0,0,0,0,999,999,999,999,999,999,999,999,999,999,999,999,999,100,0,0,NA,NA,0,NA,NA,0
636944079,main_instructions,main_instructions2,2,57,16584,0,0,0,0,0,0,0,0,999,999,999,999,999,999,999,999,999,999,999,999,999,100,0,0,NA,NA,0,NA,NA,0
636944079,main_instructions,main_instructions3,3,57,20903,0,0,0,0,0,0,0,0,999,999,999,999,999,999,999,999,999,999,999,999,999,100,0,0,NA,NA,0,NA,NA,0
636944079,main_instructions,main_instructions4,4,57,2783,0,0,0,0,0,0,0,0,999,999,999,999,999,999,999,999,999,999,999,999,999,100,0,0,NA,NA,0,NA,NA,0
636944079,gridcompare_block,gridcompare_trial,1,38,56618,nexus2_3_tw_-3.00.jpg,nexus2_7_tw_-2.00.jpg,nexus2_19_tw_-1.00.jpg,nexus2_17_tw_-3.00.jpg,nexus2_23_tw_3.00.jpg,nexus2_22_tw_3.00.jpg,nexus2_4_tw_-1.00.jpg,nexus2_14_tw_-1.00.jpg,-3,-2,-1,-3,3,3,-1,-1,-2.25,1,0.916666667,5.333333333,0,100,0.916666667,5.333333333,50,0,4.416666667,50,0,3.25
636944079,gridcompare_block,gridcompare_trial,2,38,126199,nexus2_19_tw_0.00.jpg,nexus2_17_tw_2.00.jpg,nexus2_23_tw_-1.00.jpg,nexus2_7_tw_3.00.jpg,nexus2_14_tw_-3.00.jpg,nexus2_4_tw_2.00.jpg,nexus2_12_tw_-2.00.jpg,nexus2_24_tw_-1.00.jpg,0,2,-1,3,-3,2,-2,-1,1,-1,3.333333333,4.666666667,0,100,3.333333333,4.666666667,50,0,1.333333333,38,1,2
636944079,gridcompare_block,gridcompare_trial,3,38,9177,nexus2_16_tw_-1.00.jpg,nexus2_3_tw_-2.00.jpg,nexus2_19_tw_-2.00.jpg,nexus2_5_tw_2.00.jpg,nexus2_20_tw_3.00.jpg,nexus2_10_tw_3.00.jpg,nexus2_8_tw_3.00.jpg,nexus2_24_tw_2.00.jpg,-1,-2,-2,2,3,3,3,2,-0.75,2.75,3.583333333,0.25,0,100,3.583333333,0.25,38,1,3.333333333,50,0,3.5
636944079,gridcompare_block,gridcompare_trial,4,38,93,nexus2_1_tw_-3.00.jpg,nexus2_20_tw_2.00.jpg,nexus2_19_tw_-3.00.jpg,nexus2_15_tw_1.00.jpg,nexus2_9_tw_-3.00.jpg,nexus2_12_tw_3.00.jpg,nexus2_22_tw_2.00.jpg,nexus2_17_tw_0.00.jpg,-3,2,-3,1,-3,3,2,0,-0.75,0.5,6.916666667,7,0,100,6.916666667,7,50,0,0.083333333,50,0,1.25
636944079,gridcompare_block,gridcompare_trial,5,38,1520,nexus2_13_tw_-3.00.jpg,nexus2_22_tw_-1.00.jpg,nexus2_20_tw_-1.00.jpg,nexus2_24_tw_0.00.jpg,nexus2_1_tw_1.00.jpg,nexus2_10_tw_2.00.jpg,nexus2_25_tw_-3.00.jpg,nexus2_7_tw_-1.00.jpg,-3,-1,-1,0,1,2,-3,-1,-1.25,-0.25,1.583333333,4.916666667,0,100,1.583333333,4.916666667,50,0,3.333333333,50,0,1
636944079,gridcompare_block,gridcompare_trial,6,38,796,nexus2_14_tw_3.00.jpg,nexus2_13_tw_3.00.jpg,nexus2_16_tw_3.00.jpg,nexus2_1_tw_-1.00.jpg,nexus2_8_tw_2.00.jpg,nexus2_21_tw_0.00.jpg,nexus2_25_tw_-1.00.jpg,nexus2_20_tw_-2.00.jpg,3,3,3,-1,2,0,-1,-2,2,-0.25,4,2.916666667,0,100,4,2.916666667,38,1,1.083333333,38,1,2.25
636944079,gridcompare_block,gridcompare_trial,7,50,692,nexus2_20_tw_1.00.jpg,nexus2_6_tw_3.00.jpg,nexus2_5_tw_-3.00.jpg,nexus2_4_tw_1.00.jpg,nexus2_12_tw_0.00.jpg,nexus2_19_tw_3.00.jpg,nexus2_13_tw_0.00.jpg,nexus2_1_tw_0.00.jpg,1,3,-3,1,0,3,0,0,0.5,0.75,6.333333333,2.25,0,100,6.333333333,2.25,38,0,4.083333333,50,1,0.25
636944079,gridcompare_block,gridcompare_trial,8,50,911,nexus2_11_tw_-1.00.jpg,nexus2_16_tw_1.00.jpg,nexus2_21_tw_2.00.jpg,nexus2_19_tw_2.00.jpg,nexus2_10_tw_-3.00.jpg,nexus2_13_tw_-2.00.jpg,nexus2_24_tw_3.00.jpg,nexus2_23_tw_1.00.jpg,-1,1,2,2,-3,-2,3,1,1,-0.25,2,7.583333333,0,100,2,7.583333333,50,1,5.583333333,38,0,1.25
636944079,gridcompare_block,gridcompare_trial,9,50,8099,nexus2_6_tw_-1.00.jpg,nexus2_10_tw_1.00.jpg,nexus2_18_tw_2.00.jpg,nexus2_17_tw_-2.00.jpg,nexus2_3_tw_3.00.jpg,nexus2_12_tw_-3.00.jpg,nexus2_7_tw_-3.00.jpg,nexus2_13_tw_1.00.jpg,-1,1,2,-2,3,-3,-3,1,0,-0.5,3.333333333,9,0,100,3.333333333,9,50,1,5.666666667,38,0,0.5
636944079,gridcompare_block,gridcompare_trial,10,50,60241,nexus2_3_tw_2.00.jpg,nexus2_10_tw_-1.00.jpg,nexus2_22_tw_-3.00.jpg,nexus2_24_tw_1.00.jpg,nexus2_5_tw_0.00.jpg,nexus2_14_tw_2.00.jpg,nexus2_11_tw_-3.00.jpg,nexus2_18_tw_1.00.jpg,2,-1,-3,1,0,2,-3,1,-0.25,0,4.916666667,4.666666667,0,100,4.916666667,4.666666667,38,0,0.25,50,1,0.25
636944079,gridcompare_block,gridcompare_trial,11,38,9299,nexus2_7_tw_1.00.jpg,nexus2_4_tw_-2.00.jpg,nexus2_5_tw_3.00.jpg,nexus2_2_tw_2.00.jpg,nexus2_8_tw_-1.00.jpg,nexus2_9_tw_-1.00.jpg,nexus2_6_tw_-2.00.jpg,nexus2_12_tw_2.00.jpg,1,-2,3,2,-1,-1,-2,2,1,-0.5,4.666666667,3,0,100,4.666666667,3,38,1,1.666666667,38,1,1.5
636944079,gridcompare_block,gridcompare_trial,12,38,4739,nexus2_5_tw_1.00.jpg,nexus2_2_tw_-1.00.jpg,nexus2_7_tw_0.00.jpg,nexus2_15_tw_-2.00.jpg,nexus2_21_tw_-2.00.jpg,nexus2_25_tw_-2.00.jpg,nexus2_17_tw_-1.00.jpg,nexus2_13_tw_-1.00.jpg,1,-1,0,-2,-2,-2,-1,-1,-0.5,-1.5,1.666666667,0.333333333,0,100,1.666666667,0.333333333,38,1,1.333333333,38,1,1
636944079,gridcompare_block,gridcompare_trial,13,50,1347,nexus2_18_tw_0.00.jpg,nexus2_6_tw_2.00.jpg,nexus2_14_tw_1.00.jpg,nexus2_12_tw_-1.00.jpg,nexus2_13_tw_2.00.jpg,nexus2_5_tw_-1.00.jpg,nexus2_25_tw_1.00.jpg,nexus2_11_tw_2.00.jpg,0,2,1,-1,2,-1,1,2,0.5,1,1.666666667,2,0,100,1.666666667,2,50,1,0.333333333,50,1,0.5
636944079,gridcompare_block,gridcompare_trial,14,38,3509,nexus2_9_tw_-2.00.jpg,nexus2_12_tw_1.00.jpg,nexus2_17_tw_1.00.jpg,nexus2_22_tw_1.00.jpg,nexus2_10_tw_-2.00.jpg,nexus2_23_tw_-2.00.jpg,nexus2_2_tw_0.00.jpg,nexus2_19_tw_1.00.jpg,-2,1,1,1,-2,-2,0,1,0.25,-0.75,2.25,2.25,1,101,2.25,2.25,NA,NA,0,38,1,1
636944079,gridcompare_block,gridcompare_trial,15,38,1828,nexus2_9_tw_3.00.jpg,nexus2_21_tw_-3.00.jpg,nexus2_11_tw_3.00.jpg,nexus2_2_tw_1.00.jpg,nexus2_18_tw_-2.00.jpg,nexus2_14_tw_0.00.jpg,nexus2_12_tw_1.00.jpg,nexus2_16_tw_-2.00.jpg,3,-3,3,1,-2,0,1,-2,1,-0.75,8,2.25,0,101,8,2.25,38,1,5.75,38,1,1.75
636944079,gridcompare_block,gridcompare_trial,16,50,2852,nexus2_21_tw_3.00.jpg,nexus2_16_tw_0.00.jpg,nexus2_6_tw_1.00.jpg,nexus2_24_tw_-2.00.jpg,nexus2_8_tw_1.00.jpg,nexus2_11_tw_1.00.jpg,nexus2_7_tw_2.00.jpg,nexus2_23_tw_-3.00.jpg,3,0,1,-2,1,1,2,-3,0.5,0.25,4.333333333,4.916666667,0,101,4.333333333,4.916666667,50,1,0.583333333,38,0,0.25
636944079,gridcompare_block,gridcompare_trial,17,50,3916,nexus2_17_tw_3.00.jpg,nexus2_14_tw_-2.00.jpg,nexus2_7_tw_1.00.jpg,nexus2_15_tw_0.00.jpg,nexus2_24_tw_-3.00.jpg,nexus2_23_tw_2.00.jpg,nexus2_18_tw_-3.00.jpg,nexus2_4_tw_0.00.jpg,3,-2,1,0,-3,2,-3,0,0.5,-1,4.333333333,6,0,101,4.333333333,6,50,1,1.666666667,38,0,1.5
636944079,gridcompare_block,gridcompare_trial,18,50,6043,nexus2_1_tw_-2.00.jpg,nexus2_12_tw_2.00.jpg,nexus2_19_tw_-2.00.jpg,nexus2_21_tw_1.00.jpg,nexus2_8_tw_-2.00.jpg,nexus2_25_tw_0.00.jpg,nexus2_3_tw_-1.00.jpg,nexus2_7_tw_3.00.jpg,-2,2,-2,1,-2,0,-1,3,-0.25,0,4.25,4.666666667,0,101,4.25,4.666666667,50,1,0.416666667,50,1,0.25
636944079,gridcompare_block,gridcompare_trial,19,38,3305,nexus2_16_tw_-3.00.jpg,nexus2_4_tw_-3.00.jpg,nexus2_13_tw_1.00.jpg,nexus2_10_tw_0.00.jpg,nexus2_14_tw_-3.00.jpg,nexus2_12_tw_0.00.jpg,nexus2_25_tw_2.00.jpg,nexus2_9_tw_2.00.jpg,-3,-3,1,0,-3,0,2,2,-1.25,0.25,4.25,5.583333333,0,101,4.25,5.583333333,50,0,1.333333333,50,0,1.5
636944079,gridcompare_block,gridcompare_trial,20,38,1391,nexus2_4_tw_3.00.jpg,nexus2_8_tw_0.00.jpg,nexus2_7_tw_-1.00.jpg,nexus2_10_tw_1.00.jpg,nexus2_15_tw_3.00.jpg,nexus2_23_tw_0.00.jpg,nexus2_13_tw_-1.00.jpg,nexus2_18_tw_3.00.jpg,3,0,-1,1,3,0,-1,3,0.75,1.25,2.916666667,4.25,0,101,2.916666667,4.25,50,0,1.333333333,50,0,0.5
636944079,gridcompare_block,gridcompare_trial,21,38,5360,nexus2_25_tw_3.00.jpg,nexus2_16_tw_2.00.jpg,nexus2_2_tw_-2.00.jpg,nexus2_8_tw_-3.00.jpg,nexus2_21_tw_-1.00.jpg,nexus2_20_tw_0.00.jpg,nexus2_23_tw_0.00.jpg,nexus2_15_tw_-1.00.jpg,3,2,-2,-3,-1,0,0,-1,0,-0.5,8.666666667,0.333333333,0,101,8.666666667,0.333333333,38,1,8.333333333,38,1,0.5
636944079,gridcompare_block,gridcompare_trial,22,38,1639,nexus2_5_tw_-2.00.jpg,nexus2_11_tw_-2.00.jpg,nexus2_3_tw_0.00.jpg,nexus2_12_tw_3.00.jpg,nexus2_16_tw_-3.00.jpg,nexus2_2_tw_-3.00.jpg,nexus2_13_tw_0.00.jpg,nexus2_9_tw_0.00.jpg,-2,-2,0,3,-3,-3,0,0,-0.25,-1.5,5.583333333,3,0,101,5.583333333,3,38,1,2.583333333,38,1,1.25
636944079,gridcompare_block,gridcompare_trial,23,50,3598,nexus2_19_tw_3.00.jpg,nexus2_23_tw_-3.00.jpg,nexus2_1_tw_2.00.jpg,nexus2_6_tw_0.00.jpg,nexus2_11_tw_0.00.jpg,nexus2_7_tw_-3.00.jpg,nexus2_18_tw_-1.00.jpg,nexus2_10_tw_0.00.jpg,3,-3,2,0,0,-3,-1,0,0.5,-1,7,2,0,101,7,2,38,0,5,38,0,1.5
636944079,gridcompare_block,gridcompare_trial,24,50,3578,nexus2_8_tw_0.00.jpg,nexus2_7_tw_0.00.jpg,nexus2_3_tw_1.00.jpg,nexus2_24_tw_0.00.jpg,nexus2_16_tw_1.00.jpg,nexus2_18_tw_-3.00.jpg,nexus2_13_tw_-2.00.jpg,nexus2_9_tw_1.00.jpg,0,0,1,0,1,-3,-2,1,0.25,-0.75,0.25,4.25,0,101,0.25,4.25,50,1,4,38,0,1
636944079,gridcompare_block,gridcompare_trial,25,50,7366,nexus2_11_tw_3.00.jpg,nexus2_10_tw_-1.00.jpg,nexus2_8_tw_-3.00.jpg,nexus2_24_tw_-1.00.jpg,nexus2_13_tw_3.00.jpg,nexus2_20_tw_-3.00.jpg,nexus2_23_tw_1.00.jpg,nexus2_12_tw_-1.00.jpg,3,-1,-3,-1,3,-3,1,-1,-0.5,0,6.333333333,6.666666667,0,101,6.333333333,6.666666667,50,1,0.333333333,50,1,0.5
636944079,gridcompare_block,gridcompare_trial,26,38,4272,nexus2_20_tw_2.00.jpg,nexus2_21_tw_-1.00.jpg,nexus2_8_tw_2.00.jpg,nexus2_18_tw_3.00.jpg,nexus2_16_tw_-2.00.jpg,nexus2_7_tw_-2.00.jpg,nexus2_9_tw_3.00.jpg,nexus2_19_tw_-3.00.jpg,2,-1,2,3,-2,-2,3,-3,1.5,-1,3,7.333333333,0,101,3,7.333333333,50,0,4.333333333,38,1,2.5
636944079,gridcompare_block,gridcompare_trial,27,38,4194,nexus2_11_tw_-2.00.jpg,nexus2_12_tw_-2.00.jpg,nexus2_16_tw_2.00.jpg,nexus2_13_tw_2.00.jpg,nexus2_21_tw_3.00.jpg,nexus2_23_tw_3.00.jpg,nexus2_17_tw_2.00.jpg,nexus2_6_tw_-3.00.jpg,-2,-2,2,2,3,3,2,-3,0,1.25,5.333333333,8.25,0,101,5.333333333,8.25,50,0,2.916666667,50,0,1.25
636944079,gridcompare_block,gridcompare_trial,28,50,5126,nexus2_6_tw_2.00.jpg,nexus2_1_tw_3.00.jpg,nexus2_8_tw_1.00.jpg,nexus2_11_tw_-1.00.jpg,nexus2_4_tw_-3.00.jpg,nexus2_2_tw_3.00.jpg,nexus2_12_tw_-3.00.jpg,nexus2_5_tw_3.00.jpg,2,3,1,-1,-3,3,-3,3,1.25,0,2.916666667,12,0,101,2.916666667,12,50,1,9.083333333,38,0,1.25
636944079,gridcompare_block,gridcompare_trial,29,50,2902,nexus2_8_tw_-2.00.jpg,nexus2_3_tw_-2.00.jpg,nexus2_9_tw_0.00.jpg,nexus2_25_tw_-3.00.jpg,nexus2_5_tw_-3.00.jpg,nexus2_1_tw_-3.00.jpg,nexus2_13_tw_-3.00.jpg,nexus2_10_tw_3.00.jpg,-2,-2,0,-3,-3,-3,-3,3,-1.75,-1.5,1.583333333,9,0,101,1.583333333,9,50,1,7.416666667,50,1,0.25
636944079,gridcompare_block,gridcompare_trial,30,50,4477,nexus2_1_tw_1.00.jpg,nexus2_3_tw_-3.00.jpg,nexus2_9_tw_2.00.jpg,nexus2_22_tw_-2.00.jpg,nexus2_12_tw_-3.00.jpg,nexus2_7_tw_2.00.jpg,nexus2_8_tw_-1.00.jpg,nexus2_5_tw_1.00.jpg,1,-3,2,-2,-3,2,-1,1,-0.5,-0.25,5.666666667,4.916666667,0,101,5.666666667,4.916666667,38,0,0.75,50,1,0.25
636944079,gridcompare_block,gridcompare_trial,31,38,1974,nexus2_25_tw_1.00.jpg,nexus2_22_tw_0.00.jpg,nexus2_20_tw_-2.00.jpg,nexus2_7_tw_1.00.jpg,nexus2_5_tw_2.00.jpg,nexus2_23_tw_2.00.jpg,nexus2_12_tw_1.00.jpg,nexus2_24_tw_2.00.jpg,1,0,-2,1,2,2,1,2,0,1.75,2,0.25,0,101,2,0.25,38,1,1.75,50,0,1.75
636944079,gridcompare_block,gridcompare_trial,32,38,2656,nexus2_5_tw_-2.00.jpg,nexus2_23_tw_-2.00.jpg,nexus2_19_tw_-1.00.jpg,nexus2_17_tw_-1.00.jpg,nexus2_21_tw_0.00.jpg,nexus2_12_tw_2.00.jpg,nexus2_13_tw_3.00.jpg,nexus2_20_tw_0.00.jpg,-2,-2,-1,-1,0,2,3,0,-1.5,1.25,0.333333333,2.25,0,101,0.333333333,2.25,50,0,1.916666667,50,0,2.75
636944079,gridcompare_block,gridcompare_trial,33,50,2512,nexus2_3_tw_-1.00.jpg,nexus2_25_tw_2.00.jpg,nexus2_13_tw_1.00.jpg,nexus2_19_tw_2.00.jpg,nexus2_7_tw_3.00.jpg,nexus2_23_tw_-1.00.jpg,nexus2_10_tw_-3.00.jpg,nexus2_20_tw_-3.00.jpg,-1,2,1,2,3,-1,-3,-3,1,-1,2,8,0,101,2,8,50,1,6,38,0,2
636944079,gridcompare_block,gridcompare_trial,34,50,2917,nexus2_14_tw_1.00.jpg,nexus2_10_tw_2.00.jpg,nexus2_18_tw_-1.00.jpg,nexus2_15_tw_-3.00.jpg,nexus2_20_tw_3.00.jpg,nexus2_16_tw_-1.00.jpg,nexus2_2_tw_-3.00.jpg,nexus2_24_tw_3.00.jpg,1,2,-1,-3,3,-1,-3,3,-0.25,0.5,4.916666667,9,0,101,4.916666667,9,50,1,4.083333333,50,1,0.75
636944079,gridcompare_block,gridcompare_trial,35,38,3947,nexus2_25_tw_0.00.jpg,nexus2_11_tw_2.00.jpg,nexus2_19_tw_0.00.jpg,nexus2_4_tw_3.00.jpg,nexus2_13_tw_-1.00.jpg,nexus2_8_tw_3.00.jpg,nexus2_21_tw_-3.00.jpg,nexus2_5_tw_0.00.jpg,0,2,0,3,-1,3,-3,0,1.25,-0.25,2.25,6.25,0,101,2.25,6.25,50,0,4,38,1,1.5
636944079,gridcompare_block,gridcompare_trial,36,38,2441,nexus2_19_tw_1.00.jpg,nexus2_22_tw_-2.00.jpg,nexus2_12_tw_-1.00.jpg,nexus2_2_tw_-1.00.jpg,nexus2_21_tw_-2.00.jpg,nexus2_10_tw_-2.00.jpg,nexus2_15_tw_2.00.jpg,nexus2_23_tw_0.00.jpg,1,-2,-1,-1,-2,-2,2,0,-0.75,-0.5,1.583333333,3.666666667,0,101,1.583333333,3.666666667,50,0,2.083333333,50,0,0.25
636944079,gridcompare_block,gridcompare_trial,37,50,11201,nexus2_11_tw_1.00.jpg,nexus2_1_tw_2.00.jpg,nexus2_12_tw_3.00.jpg,nexus2_13_tw_-2.00.jpg,nexus2_25_tw_3.00.jpg,nexus2_21_tw_1.00.jpg,nexus2_17_tw_3.00.jpg,nexus2_24_tw_-2.00.jpg,1,2,3,-2,3,1,3,-2,1,1.25,4.666666667,5.583333333,0,101,4.666666667,5.583333333,50,1,0.916666667,50,1,0.25
636944079,gridcompare_block,gridcompare_trial,38,38,6135,nexus2_23_tw_3.00.jpg,nexus2_25_tw_-1.00.jpg,nexus2_13_tw_0.00.jpg,nexus2_10_tw_2.00.jpg,nexus2_22_tw_-1.00.jpg,nexus2_5_tw_-1.00.jpg,nexus2_7_tw_-3.00.jpg,nexus2_19_tw_1.00.jpg,3,-1,0,2,-1,-1,-3,1,1,-1,3.333333333,2.666666667,0,101,3.333333333,2.666666667,38,1,0.666666667,38,1,2
636944079,gridcompare_block,gridcompare_trial,39,38,5073,nexus2_15_tw_-3.00.jpg,nexus2_24_tw_1.00.jpg,nexus2_10_tw_-3.00.jpg,nexus2_22_tw_0.00.jpg,nexus2_7_tw_-1.00.jpg,nexus2_16_tw_3.00.jpg,nexus2_3_tw_3.00.jpg,nexus2_9_tw_-2.00.jpg,-3,1,-3,0,-1,3,3,-2,-1.25,0.75,4.25,6.916666667,0,101,4.25,6.916666667,50,0,2.666666667,50,0,2
636944079,gridcompare_block,gridcompare_trial,40,50,8868,nexus2_8_tw_1.00.jpg,nexus2_5_tw_1.00.jpg,nexus2_21_tw_2.00.jpg,nexus2_6_tw_3.00.jpg,nexus2_13_tw_2.00.jpg,nexus2_12_tw_0.00.jpg,nexus2_7_tw_0.00.jpg,nexus2_4_tw_-2.00.jpg,1,1,2,3,2,0,0,-2,1.75,0,0.916666667,2.666666667,0,101,0.916666667,2.666666667,50,1,1.75,38,0,1.75
636944079,gridcompare_block,gridcompare_trial,41,38,4452,nexus2_17_tw_0.00.jpg,nexus2_2_tw_0.00.jpg,nexus2_8_tw_-3.00.jpg,nexus2_12_tw_-2.00.jpg,nexus2_16_tw_0.00.jpg,nexus2_15_tw_0.00.jpg,nexus2_14_tw_0.00.jpg,nexus2_23_tw_2.00.jpg,0,0,-3,-2,0,0,0,2,-1.25,0.5,2.25,1,0,101,2.25,1,38,1,1.25,50,0,1.75
636944079,gridcompare_block,gridcompare_trial,42,38,2191,nexus2_11_tw_-3.00.jpg,nexus2_1_tw_3.00.jpg,nexus2_3_tw_1.00.jpg,nexus2_22_tw_2.00.jpg,nexus2_21_tw_-3.00.jpg,nexus2_8_tw_-1.00.jpg,nexus2_2_tw_2.00.jpg,nexus2_10_tw_0.00.jpg,-3,3,1,2,-3,-1,2,0,0.75,-0.5,6.916666667,4.333333333,0,101,6.916666667,4.333333333,38,1,2.583333333,38,1,1.25
636944079,gridcompare_block,gridcompare_trial,43,38,3345,nexus2_10_tw_-2.00.jpg,nexus2_5_tw_-3.00.jpg,nexus2_7_tw_2.00.jpg,nexus2_16_tw_3.00.jpg,nexus2_3_tw_2.00.jpg,nexus2_25_tw_-2.00.jpg,nexus2_24_tw_-3.00.jpg,nexus2_20_tw_-1.00.jpg,-2,-3,2,3,2,-2,-3,-1,0,-1,8.666666667,4.666666667,0,101,8.666666667,4.666666667,38,1,4,38,1,1
636944079,gridcompare_block,gridcompare_trial,44,50,9973,nexus2_3_tw_0.00.jpg,nexus2_14_tw_3.00.jpg,nexus2_4_tw_1.00.jpg,nexus2_24_tw_3.00.jpg,nexus2_2_tw_1.00.jpg,nexus2_9_tw_1.00.jpg,nexus2_12_tw_-2.00.jpg,nexus2_21_tw_-2.00.jpg,0,3,1,3,1,1,-2,-2,1.75,-0.5,2.25,3,0,101,2.25,3,50,1,0.75,38,0,2.25
636944079,gridcompare_block,gridcompare_trial,45,38,6795,nexus2_21_tw_-1.00.jpg,nexus2_17_tw_-2.00.jpg,nexus2_11_tw_0.00.jpg,nexus2_20_tw_1.00.jpg,nexus2_13_tw_-3.00.jpg,nexus2_25_tw_0.00.jpg,nexus2_2_tw_3.00.jpg,nexus2_10_tw_3.00.jpg,-1,-2,0,1,-3,0,3,3,-0.5,0.75,1.666666667,8.25,0,101,1.666666667,8.25,50,0,6.583333333,50,0,1.25
636944079,gridcompare_block,gridcompare_trial,46,38,6683,nexus2_1_tw_-1.00.jpg,nexus2_5_tw_-2.00.jpg,nexus2_16_tw_2.00.jpg,nexus2_25_tw_3.00.jpg,nexus2_7_tw_-2.00.jpg,nexus2_23_tw_-1.00.jpg,nexus2_19_tw_2.00.jpg,nexus2_20_tw_2.00.jpg,-1,-2,2,3,-2,-1,2,2,0.5,0.25,5.666666667,4.25,0,101,5.666666667,4.25,38,1,1.416666667,38,1,0.25
636944079,gridcompare_block,gridcompare_trial,47,38,2640,nexus2_4_tw_0.00.jpg,nexus2_24_tw_-1.00.jpg,nexus2_17_tw_1.00.jpg,nexus2_19_tw_-1.00.jpg,nexus2_13_tw_2.00.jpg,nexus2_25_tw_-1.00.jpg,nexus2_15_tw_2.00.jpg,nexus2_18_tw_0.00.jpg,0,-1,1,-1,2,-1,2,0,-0.25,0.75,0.916666667,2.25,0,101,0.916666667,2.25,50,0,1.333333333,50,0,1
636944079,gridcompare_block,gridcompare_trial,48,38,3248,nexus2_15_tw_3.00.jpg,nexus2_3_tw_-2.00.jpg,nexus2_22_tw_-3.00.jpg,nexus2_10_tw_1.00.jpg,nexus2_17_tw_-3.00.jpg,nexus2_6_tw_-2.00.jpg,nexus2_1_tw_0.00.jpg,nexus2_12_tw_1.00.jpg,3,-2,-3,1,-3,-2,0,1,-0.25,-1,7.583333333,3.333333333,0,101,7.583333333,3.333333333,38,1,4.25,38,1,0.75
636944079,gridcompare_block,gridcompare_trial,49,38,3065,nexus2_8_tw_2.00.jpg,nexus2_7_tw_0.00.jpg,nexus2_20_tw_0.00.jpg,nexus2_18_tw_2.00.jpg,nexus2_1_tw_-2.00.jpg,nexus2_4_tw_-1.00.jpg,nexus2_10_tw_-1.00.jpg,nexus2_19_tw_-2.00.jpg,2,0,0,2,-2,-1,-1,-2,1,-1.5,1.333333333,0.333333333,0,101,1.333333333,0.333333333,38,1,1,38,1,2.5
636944079,gridcompare_block,gridcompare_trial,50,38,3913,nexus2_2_tw_-2.00.jpg,nexus2_3_tw_3.00.jpg,nexus2_14_tw_2.00.jpg,nexus2_25_tw_-3.00.jpg,nexus2_5_tw_-1.00.jpg,nexus2_24_tw_-3.00.jpg,nexus2_13_tw_-1.00.jpg,nexus2_10_tw_3.00.jpg,-2,3,2,-3,-1,-3,-1,3,0,-0.5,8.666666667,6.333333333,0,101,8.666666667,6.333333333,38,1,2.333333333,38,1,0.5
636944079,gridcompare_block,gridcompare_trial,51,50,2296,nexus2_7_tw_3.00.jpg,nexus2_14_tw_-2.00.jpg,nexus2_19_tw_0.00.jpg,nexus2_13_tw_0.00.jpg,nexus2_21_tw_1.00.jpg,nexus2_5_tw_3.00.jpg,nexus2_6_tw_1.00.jpg,nexus2_20_tw_-2.00.jpg,3,-2,0,0,1,3,1,-2,0.25,0.75,4.25,4.25,1,102,4.25,4.25,NA,NA,0,50,1,0.5
636944079,gridcompare_block,gridcompare_trial,52,38,3062,nexus2_11_tw_2.00.jpg,nexus2_15_tw_-1.00.jpg,nexus2_17_tw_2.00.jpg,nexus2_22_tw_1.00.jpg,nexus2_8_tw_-2.00.jpg,nexus2_14_tw_-1.00.jpg,nexus2_20_tw_1.00.jpg,nexus2_18_tw_1.00.jpg,2,-1,2,1,-2,-1,1,1,1,-0.25,2,2.25,0,102,2,2.25,50,0,0.25,38,1,1.25
636944079,gridcompare_block,gridcompare_trial,53,38,2405,nexus2_18_tw_-2.00.jpg,nexus2_11_tw_-1.00.jpg,nexus2_6_tw_-1.00.jpg,nexus2_13_tw_-3.00.jpg,nexus2_2_tw_3.00.jpg,nexus2_20_tw_3.00.jpg,nexus2_14_tw_1.00.jpg,nexus2_10_tw_0.00.jpg,-2,-1,-1,-3,3,3,1,0,-1.75,1.75,0.916666667,2.25,0,102,0.916666667,2.25,50,0,1.333333333,50,0,3.5
636944079,gridcompare_block,gridcompare_trial,54,50,10703,nexus2_16_tw_0.00.jpg,nexus2_2_tw_-3.00.jpg,nexus2_20_tw_-1.00.jpg,nexus2_3_tw_0.00.jpg,nexus2_11_tw_-3.00.jpg,nexus2_25_tw_-2.00.jpg,nexus2_17_tw_3.00.jpg,nexus2_19_tw_-3.00.jpg,0,-3,-1,0,-3,-2,3,-3,-1,-1.25,2,8.25,0,102,2,8.25,50,1,6.25,38,0,0.25
636944079,gridcompare_block,gridcompare_trial,55,38,4280,nexus2_2_tw_2.00.jpg,nexus2_18_tw_-2.00.jpg,nexus2_5_tw_0.00.jpg,nexus2_16_tw_1.00.jpg,nexus2_10_tw_-3.00.jpg,nexus2_9_tw_-3.00.jpg,nexus2_22_tw_3.00.jpg,nexus2_21_tw_3.00.jpg,2,-2,0,1,-3,-3,3,3,0.25,0,2.916666667,12,0,102,2.916666667,12,50,0,9.083333333,38,1,0.25
636944079,gridcompare_block,gridcompare_trial,56,50,1209,nexus2_12_tw_-3.00.jpg,nexus2_15_tw_-2.00.jpg,nexus2_14_tw_-3.00.jpg,nexus2_18_tw_-1.00.jpg,nexus2_16_tw_-3.00.jpg,nexus2_24_tw_0.00.jpg,nexus2_13_tw_1.00.jpg,nexus2_5_tw_2.00.jpg,-3,-2,-3,-1,-3,0,1,2,-2.25,0,0.916666667,4.666666667,0,102,0.916666667,4.666666667,50,1,3.75,50,1,2.25
636944079,gridcompare_block,gridcompare_trial,57,38,2385,nexus2_12_tw_3.00.jpg,nexus2_19_tw_3.00.jpg,nexus2_11_tw_-2.00.jpg,nexus2_21_tw_0.00.jpg,nexus2_4_tw_2.00.jpg,nexus2_1_tw_-2.00.jpg,nexus2_17_tw_-2.00.jpg,nexus2_2_tw_-1.00.jpg,3,3,-2,0,2,-2,-2,-1,1,-0.75,6,3.583333333,0,102,6,3.583333333,38,1,2.416666667,38,1,1.75
636944079,gridcompare_block,gridcompare_trial,58,50,1531,nexus2_3_tw_-3.00.jpg,nexus2_18_tw_1.00.jpg,nexus2_10_tw_2.00.jpg,nexus2_19_tw_0.00.jpg,nexus2_9_tw_-1.00.jpg,nexus2_5_tw_3.00.jpg,nexus2_17_tw_-3.00.jpg,nexus2_4_tw_-2.00.jpg,-3,1,2,0,-1,3,-3,-2,0,-0.75,4.666666667,6.916666667,0,102,4.666666667,6.916666667,50,1,2.25,38,0,0.75
636944079,gridcompare_block,gridcompare_trial,59,38,2086,nexus2_11_tw_0.00.jpg,nexus2_3_tw_-1.00.jpg,nexus2_9_tw_1.00.jpg,nexus2_6_tw_0.00.jpg,nexus2_16_tw_-1.00.jpg,nexus2_25_tw_1.00.jpg,nexus2_22_tw_-1.00.jpg,nexus2_4_tw_1.00.jpg,0,-1,1,0,-1,1,-1,1,0,0,0.666666667,1.333333333,0,102,0.666666667,1.333333333,50,0,0.666666667,NA,NA,0
636944079,gridcompare_block,gridcompare_trial,60,38,3836,nexus2_14_tw_3.00.jpg,nexus2_1_tw_3.00.jpg,nexus2_21_tw_2.00.jpg,nexus2_23_tw_-3.00.jpg,nexus2_12_tw_-1.00.jpg,nexus2_24_tw_-2.00.jpg,nexus2_9_tw_-1.00.jpg,nexus2_7_tw_-3.00.jpg,3,3,2,-3,-1,-2,-1,-3,1.25,-1.75,8.25,0.916666667,0,102,8.25,0.916666667,38,1,7.333333333,38,1,3
636944079,gridcompare_block,gridcompare_trial,61,38,4607,nexus2_17_tw_1.00.jpg,nexus2_12_tw_2.00.jpg,nexus2_18_tw_2.00.jpg,nexus2_24_tw_1.00.jpg,nexus2_20_tw_-3.00.jpg,nexus2_15_tw_1.00.jpg,nexus2_19_tw_-3.00.jpg,nexus2_6_tw_-3.00.jpg,1,2,2,1,-3,1,-3,-3,1.5,-2,0.333333333,4,0,102,0.333333333,4,50,0,3.666666667,38,1,3.5
636944079,gridcompare_block,gridcompare_trial,62,38,4771,nexus2_21_tw_-3.00.jpg,nexus2_11_tw_1.00.jpg,nexus2_10_tw_-1.00.jpg,nexus2_7_tw_-1.00.jpg,nexus2_15_tw_-3.00.jpg,nexus2_12_tw_0.00.jpg,nexus2_13_tw_-2.00.jpg,nexus2_2_tw_1.00.jpg,-3,1,-1,-1,-3,0,-2,1,-1,-1,2.666666667,3.333333333,0,102,2.666666667,3.333333333,50,0,0.666666667,NA,NA,0
636944079,gridcompare_block,gridcompare_trial,63,50,4178,nexus2_20_tw_2.00.jpg,nexus2_5_tw_1.00.jpg,nexus2_23_tw_1.00.jpg,nexus2_14_tw_-2.00.jpg,nexus2_25_tw_2.00.jpg,nexus2_7_tw_-2.00.jpg,nexus2_9_tw_-3.00.jpg,nexus2_19_tw_2.00.jpg,2,1,1,-2,2,-2,-3,2,0.5,-0.25,3,6.916666667,0,102,3,6.916666667,50,1,3.916666667,38,0,0.75
636944079,gridcompare_block,gridcompare_trial,64,50,7959,nexus2_15_tw_3.00.jpg,nexus2_14_tw_2.00.jpg,nexus2_24_tw_2.00.jpg,nexus2_1_tw_-3.00.jpg,nexus2_21_tw_2.00.jpg,nexus2_8_tw_0.00.jpg,nexus2_23_tw_-2.00.jpg,nexus2_19_tw_-2.00.jpg,3,2,2,-3,2,0,-2,-2,1,-0.5,7.333333333,3.666666667,0,102,7.333333333,3.666666667,38,0,3.666666667,38,0,1.5
636944079,gridcompare_block,gridcompare_trial,65,38,1194,nexus2_5_tw_2.00.jpg,nexus2_22_tw_-2.00.jpg,nexus2_23_tw_0.00.jpg,nexus2_4_tw_-3.00.jpg,nexus2_16_tw_-2.00.jpg,nexus2_9_tw_0.00.jpg,nexus2_12_tw_-1.00.jpg,nexus2_8_tw_3.00.jpg,2,-2,0,-3,-2,0,-1,3,-0.75,0,4.916666667,4.666666667,0,102,4.916666667,4.666666667,38,1,0.25,50,0,0.75
636944079,gridcompare_block,gridcompare_trial,66,38,3314,nexus2_14_tw_0.00.jpg,nexus2_15_tw_-2.00.jpg,nexus2_3_tw_1.00.jpg,nexus2_9_tw_3.00.jpg,nexus2_23_tw_1.00.jpg,nexus2_19_tw_-1.00.jpg,nexus2_5_tw_0.00.jpg,nexus2_13_tw_3.00.jpg,0,-2,1,3,1,-1,0,3,0.5,0.75,4.333333333,2.916666667,0,102,4.333333333,2.916666667,38,1,1.416666667,50,0,0.25
636944079,gridcompare_block,gridcompare_trial,67,38,3128,nexus2_15_tw_2.00.jpg,nexus2_7_tw_1.00.jpg,nexus2_25_tw_2.00.jpg,nexus2_10_tw_-2.00.jpg,nexus2_23_tw_2.00.jpg,nexus2_18_tw_-3.00.jpg,nexus2_3_tw_2.00.jpg,nexus2_9_tw_-2.00.jpg,2,1,2,-2,2,-3,2,-2,0.75,-0.25,3.583333333,6.916666667,0,102,3.583333333,6.916666667,50,0,3.333333333,38,1,1
636944079,gridcompare_block,gridcompare_trial,68,38,2326,nexus2_2_tw_0.00.jpg,nexus2_20_tw_-2.00.jpg,nexus2_1_tw_1.00.jpg,nexus2_14_tw_-1.00.jpg,nexus2_10_tw_1.00.jpg,nexus2_19_tw_3.00.jpg,nexus2_17_tw_0.00.jpg,nexus2_21_tw_-1.00.jpg,0,-2,1,-1,1,3,0,-1,-0.5,0.75,1.666666667,2.916666667,0,102,1.666666667,2.916666667,50,0,1.25,50,0,1.25
636944079,gridcompare_block,gridcompare_trial,69,38,1491,nexus2_10_tw_-1.00.jpg,nexus2_1_tw_2.00.jpg,nexus2_2_tw_-2.00.jpg,nexus2_24_tw_-2.00.jpg,nexus2_3_tw_-2.00.jpg,nexus2_23_tw_-2.00.jpg,nexus2_6_tw_-1.00.jpg,nexus2_11_tw_3.00.jpg,-1,2,-2,-2,-2,-2,-1,3,-0.75,-0.5,3.583333333,5.666666667,0,102,3.583333333,5.666666667,50,0,2.083333333,50,0,0.25
636944079,gridcompare_block,gridcompare_trial,70,50,3695,nexus2_5_tw_-2.00.jpg,nexus2_8_tw_2.00.jpg,nexus2_24_tw_-3.00.jpg,nexus2_14_tw_-1.00.jpg,nexus2_3_tw_2.00.jpg,nexus2_6_tw_-2.00.jpg,nexus2_22_tw_3.00.jpg,nexus2_11_tw_1.00.jpg,-2,2,-3,-1,2,-2,3,1,-1,1,4.666666667,4.666666667,1,103,4.666666667,4.666666667,NA,NA,0,50,1,2
636944079,gridcompare_block,gridcompare_trial,71,38,3143,nexus2_5_tw_-1.00.jpg,nexus2_1_tw_-1.00.jpg,nexus2_25_tw_3.00.jpg,nexus2_9_tw_2.00.jpg,nexus2_8_tw_-2.00.jpg,nexus2_21_tw_3.00.jpg,nexus2_7_tw_2.00.jpg,nexus2_17_tw_-1.00.jpg,-1,-1,3,2,-2,3,2,-1,0.75,0.5,4.25,5.666666667,0,103,4.25,5.666666667,50,0,1.416666667,38,1,0.25
636944079,gridcompare_block,gridcompare_trial,72,38,7060,nexus2_9_tw_0.00.jpg,nexus2_21_tw_-2.00.jpg,nexus2_13_tw_0.00.jpg,nexus2_3_tw_3.00.jpg,nexus2_7_tw_-2.00.jpg,nexus2_4_tw_-1.00.jpg,nexus2_19_tw_1.00.jpg,nexus2_23_tw_3.00.jpg,0,-2,0,3,-2,-1,1,3,0.25,0.25,4.25,4.916666667,0,103,4.25,4.916666667,50,0,0.666666667,NA,NA,0
636944079,gridcompare_block,gridcompare_trial,73,38,3418,nexus2_8_tw_-3.00.jpg,nexus2_13_tw_-2.00.jpg,nexus2_6_tw_0.00.jpg,nexus2_24_tw_0.00.jpg,nexus2_19_tw_1.00.jpg,nexus2_16_tw_0.00.jpg,nexus2_18_tw_3.00.jpg,nexus2_15_tw_1.00.jpg,-3,-2,0,0,1,0,3,1,-1.25,1.25,2.25,1.583333333,0,103,2.25,1.583333333,38,1,0.666666667,50,0,2.5
636944079,gridcompare_block,gridcompare_trial,74,50,2236,nexus2_16_tw_3.00.jpg,nexus2_5_tw_-3.00.jpg,nexus2_23_tw_-3.00.jpg,nexus2_10_tw_2.00.jpg,nexus2_14_tw_-3.00.jpg,nexus2_3_tw_1.00.jpg,nexus2_4_tw_3.00.jpg,nexus2_1_tw_0.00.jpg,3,-3,-3,2,-3,1,3,0,-0.25,0.25,10.25,6.25,0,103,10.25,6.25,38,0,4,50,1,0.5
636944079,gridcompare_block,gridcompare_trial,75,38,1916,nexus2_22_tw_1.00.jpg,nexus2_7_tw_0.00.jpg,nexus2_11_tw_3.00.jpg,nexus2_2_tw_3.00.jpg,nexus2_9_tw_-2.00.jpg,nexus2_23_tw_-1.00.jpg,nexus2_16_tw_2.00.jpg,nexus2_3_tw_-1.00.jpg,1,0,3,3,-2,-1,2,-1,1.75,-0.5,2.25,3,0,103,2.25,3,50,0,0.75,38,1,2.25
636944079,gridcompare_block,gridcompare_trial,76,38,2555,nexus2_11_tw_-2.00.jpg,nexus2_5_tw_1.00.jpg,nexus2_22_tw_-3.00.jpg,nexus2_14_tw_0.00.jpg,nexus2_10_tw_3.00.jpg,nexus2_18_tw_0.00.jpg,nexus2_1_tw_1.00.jpg,nexus2_19_tw_3.00.jpg,-2,1,-3,0,3,0,1,3,-1,1.75,3.333333333,2.25,0,103,3.333333333,2.25,38,1,1.083333333,50,0,2.75
636944079,gridcompare_block,gridcompare_trial,77,38,2836,nexus2_23_tw_1.00.jpg,nexus2_18_tw_2.00.jpg,nexus2_9_tw_-3.00.jpg,nexus2_25_tw_-3.00.jpg,nexus2_17_tw_-3.00.jpg,nexus2_7_tw_2.00.jpg,nexus2_11_tw_-1.00.jpg,nexus2_21_tw_0.00.jpg,1,2,-3,-3,-3,2,-1,0,-0.75,-0.5,6.916666667,4.333333333,0,103,6.916666667,4.333333333,38,1,2.583333333,50,0,0.25
636944079,gridcompare_block,gridcompare_trial,78,38,2252,nexus2_22_tw_2.00.jpg,nexus2_20_tw_0.00.jpg,nexus2_1_tw_3.00.jpg,nexus2_16_tw_1.00.jpg,nexus2_9_tw_-1.00.jpg,nexus2_12_tw_0.00.jpg,nexus2_23_tw_3.00.jpg,nexus2_2_tw_1.00.jpg,2,0,3,1,-1,0,3,1,1.5,0.75,1.666666667,2.916666667,0,103,1.666666667,2.916666667,50,0,1.25,38,1,0.75
636944079,gridcompare_block,gridcompare_trial,79,50,6476,nexus2_25_tw_1.00.jpg,nexus2_9_tw_3.00.jpg,nexus2_8_tw_3.00.jpg,nexus2_4_tw_0.00.jpg,nexus2_20_tw_1.00.jpg,nexus2_7_tw_-1.00.jpg,nexus2_19_tw_-2.00.jpg,nexus2_11_tw_0.00.jpg,1,3,3,0,1,-1,-2,0,1.75,-0.5,2.25,1.666666667,0,103,2.25,1.666666667,38,0,0.583333333,38,0,2.25
636944079,gridcompare_block,gridcompare_trial,80,50,2216,nexus2_9_tw_2.00.jpg,nexus2_8_tw_0.00.jpg,nexus2_23_tw_0.00.jpg,nexus2_15_tw_0.00.jpg,nexus2_24_tw_1.00.jpg,nexus2_2_tw_2.00.jpg,nexus2_22_tw_0.00.jpg,nexus2_12_tw_1.00.jpg,2,0,0,0,1,2,0,1,0.5,1,1,0.666666667,0,103,1,0.666666667,38,0,0.333333333,50,1,0.5
636944079,gridcompare_block,gridcompare_trial,81,50,1977,nexus2_17_tw_1.00.jpg,nexus2_9_tw_1.00.jpg,nexus2_2_tw_-1.00.jpg,nexus2_13_tw_1.00.jpg,nexus2_6_tw_-3.00.jpg,nexus2_15_tw_-1.00.jpg,nexus2_8_tw_1.00.jpg,nexus2_20_tw_3.00.jpg,1,1,-1,1,-3,-1,1,3,0.5,0,1,6.666666667,0,103,1,6.666666667,50,1,5.666666667,38,0,0.5
636944079,gridcompare_block,gridcompare_trial,82,50,2003,nexus2_3_tw_-3.00.jpg,nexus2_22_tw_0.00.jpg,nexus2_18_tw_1.00.jpg,nexus2_23_tw_-3.00.jpg,nexus2_21_tw_1.00.jpg,nexus2_15_tw_2.00.jpg,nexus2_13_tw_3.00.jpg,nexus2_11_tw_-3.00.jpg,-3,0,1,-3,1,2,3,-3,-1.25,0.75,4.25,6.916666667,0,103,4.25,6.916666667,50,1,2.666666667,50,1,2
636944079,gridcompare_block,gridcompare_trial,83,38,1532,nexus2_22_tw_-1.00.jpg,nexus2_3_tw_0.00.jpg,nexus2_12_tw_3.00.jpg,nexus2_25_tw_0.00.jpg,nexus2_11_tw_2.00.jpg,nexus2_1_tw_2.00.jpg,nexus2_21_tw_-2.00.jpg,nexus2_16_tw_-1.00.jpg,-1,0,3,0,2,2,-2,-1,0.5,0.25,3,4.25,0,103,3,4.25,50,0,1.25,38,1,0.25
636944079,gridcompare_block,gridcompare_trial,84,50,2807,nexus2_15_tw_-1.00.jpg,nexus2_3_tw_0.00.jpg,nexus2_4_tw_2.00.jpg,nexus2_25_tw_-2.00.jpg,nexus2_19_tw_-3.00.jpg,nexus2_12_tw_-2.00.jpg,nexus2_6_tw_3.00.jpg,nexus2_17_tw_-1.00.jpg,-1,0,2,-2,-3,-2,3,-1,-0.25,-0.75,2.916666667,6.916666667,0,103,2.916666667,6.916666667,50,1,4,38,0,0.5
636944079,gridcompare_block,gridcompare_trial,85,38,1905,nexus2_14_tw_1.00.jpg,nexus2_4_tw_0.00.jpg,nexus2_5_tw_3.00.jpg,nexus2_19_tw_2.00.jpg,nexus2_23_tw_-1.00.jpg,nexus2_18_tw_3.00.jpg,nexus2_10_tw_-3.00.jpg,nexus2_24_tw_-1.00.jpg,1,0,3,2,-1,3,-3,-1,1.5,-0.5,1.666666667,6.333333333,0,103,1.666666667,6.333333333,50,0,4.666666667,38,1,2
636944079,gridcompare_block,gridcompare_trial,86,50,1262,nexus2_15_tw_-2.00.jpg,nexus2_6_tw_2.00.jpg,nexus2_1_tw_0.00.jpg,nexus2_7_tw_1.00.jpg,nexus2_20_tw_-1.00.jpg,nexus2_16_tw_-2.00.jpg,nexus2_13_tw_-3.00.jpg,nexus2_25_tw_-1.00.jpg,-2,2,0,1,-1,-2,-3,-1,0.25,-1.75,2.916666667,0.916666667,0,103,2.916666667,0.916666667,38,0,2,38,0,2
636944079,gridcompare_block,gridcompare_trial,87,38,916,nexus2_4_tw_-2.00.jpg,nexus2_1_tw_-2.00.jpg,nexus2_25_tw_-1.00.jpg,nexus2_22_tw_3.00.jpg,nexus2_14_tw_3.00.jpg,nexus2_9_tw_1.00.jpg,nexus2_18_tw_0.00.jpg,nexus2_2_tw_-2.00.jpg,-2,-2,-1,3,3,1,0,-2,-0.5,0.5,5.666666667,4.333333333,0,103,5.666666667,4.333333333,38,1,1.333333333,50,0,1
636944079,gridcompare_block,gridcompare_trial,88,38,6,nexus2_11_tw_-1.00.jpg,nexus2_6_tw_1.00.jpg,nexus2_2_tw_0.00.jpg,nexus2_12_tw_2.00.jpg,nexus2_8_tw_-1.00.jpg,nexus2_17_tw_0.00.jpg,nexus2_5_tw_-1.00.jpg,nexus2_10_tw_0.00.jpg,-1,1,0,2,-1,0,-1,0,0.5,-0.5,1.666666667,0.333333333,0,103,1.666666667,0.333333333,38,1,1.333333333,38,1,1
636944079,gridcompare_block,gridcompare_trial,89,38,4220,nexus2_20_tw_-3.00.jpg,nexus2_7_tw_-3.00.jpg,nexus2_15_tw_1.00.jpg,nexus2_17_tw_3.00.jpg,nexus2_9_tw_0.00.jpg,nexus2_2_tw_-3.00.jpg,nexus2_3_tw_1.00.jpg,nexus2_19_tw_0.00.jpg,-3,-3,1,3,0,-3,1,0,-0.5,-0.5,9,3,0,103,9,3,38,1,6,NA,NA,0
636944079,gridcompare_block,gridcompare_trial,90,38,2320,nexus2_22_tw_1.00.jpg,nexus2_17_tw_2.00.jpg,nexus2_8_tw_-2.00.jpg,nexus2_15_tw_0.00.jpg,nexus2_13_tw_-1.00.jpg,nexus2_6_tw_-2.00.jpg,nexus2_2_tw_0.00.jpg,nexus2_12_tw_-3.00.jpg,1,2,-2,0,-1,-2,0,-3,0.25,-1.5,2.916666667,1.666666667,0,103,2.916666667,1.666666667,38,1,1.25,38,1,1.75
636944079,gridcompare_block,gridcompare_trial,91,50,1661,nexus2_15_tw_3.00.jpg,nexus2_19_tw_-1.00.jpg,nexus2_10_tw_1.00.jpg,nexus2_23_tw_2.00.jpg,nexus2_5_tw_0.00.jpg,nexus2_1_tw_-3.00.jpg,nexus2_7_tw_3.00.jpg,nexus2_11_tw_-2.00.jpg,3,-1,1,2,0,-3,3,-2,1.25,-0.5,2.916666667,7,0,103,2.916666667,7,50,1,4.083333333,38,0,1.75
636944079,gridcompare_block,gridcompare_trial,92,38,2499,nexus2_25_tw_-3.00.jpg,nexus2_16_tw_-3.00.jpg,nexus2_8_tw_-1.00.jpg,nexus2_13_tw_2.00.jpg,nexus2_21_tw_0.00.jpg,nexus2_22_tw_2.00.jpg,nexus2_23_tw_-2.00.jpg,nexus2_9_tw_-3.00.jpg,-3,-3,-1,2,0,2,-2,-3,-1.25,-0.75,5.583333333,4.916666667,0,103,5.583333333,4.916666667,38,1,0.666666667,50,0,0.5
636944079,gridcompare_block,gridcompare_trial,93,38,1385,nexus2_20_tw_-3.00.jpg,nexus2_2_tw_2.00.jpg,nexus2_8_tw_2.00.jpg,nexus2_9_tw_-1.00.jpg,nexus2_4_tw_1.00.jpg,nexus2_12_tw_-2.00.jpg,nexus2_5_tw_-2.00.jpg,nexus2_13_tw_-3.00.jpg,-3,2,2,-1,1,-2,-2,-3,0,-1.5,6,3,0,103,6,3,38,1,3,38,1,1.5
636944079,gridcompare_block,gridcompare_trial,94,50,3178,nexus2_19_tw_-2.00.jpg,nexus2_21_tw_-1.00.jpg,nexus2_5_tw_-3.00.jpg,nexus2_14_tw_2.00.jpg,nexus2_2_tw_-3.00.jpg,nexus2_4_tw_-3.00.jpg,nexus2_15_tw_-3.00.jpg,nexus2_20_tw_2.00.jpg,-2,-1,-3,2,-3,-3,-3,2,-1,-1.75,4.666666667,6.25,0,103,4.666666667,6.25,50,1,1.583333333,38,0,0.75
636944079,gridcompare_block,gridcompare_trial,95,50,2421,nexus2_12_tw_0.00.jpg,nexus2_10_tw_-2.00.jpg,nexus2_20_tw_-1.00.jpg,nexus2_19_tw_-3.00.jpg,nexus2_22_tw_-2.00.jpg,nexus2_6_tw_-3.00.jpg,nexus2_11_tw_2.00.jpg,nexus2_2_tw_-2.00.jpg,0,-2,-1,-3,-2,-3,2,-2,-1.5,-1.25,1.666666667,4.916666667,0,103,1.666666667,4.916666667,50,1,3.25,50,1,0.25
636944079,gridcompare_block,gridcompare_trial,96,38,2062,nexus2_5_tw_2.00.jpg,nexus2_12_tw_-3.00.jpg,nexus2_15_tw_-3.00.jpg,nexus2_17_tw_-2.00.jpg,nexus2_7_tw_-1.00.jpg,nexus2_22_tw_-3.00.jpg,nexus2_18_tw_-2.00.jpg,nexus2_19_tw_-1.00.jpg,2,-3,-3,-2,-1,-3,-2,-1,-1.5,-1.75,5.666666667,0.916666667,0,103,5.666666667,0.916666667,38,1,4.75,38,1,0.25
636944079,gridcompare_block,gridcompare_trial,97,38,1621,nexus2_4_tw_2.00.jpg,nexus2_2_tw_1.00.jpg,nexus2_11_tw_0.00.jpg,nexus2_22_tw_-3.00.jpg,nexus2_7_tw_-3.00.jpg,nexus2_9_tw_-2.00.jpg,nexus2_20_tw_-2.00.jpg,nexus2_8_tw_-3.00.jpg,2,1,0,-3,-3,-2,-2,-3,0,-2.5,4.666666667,0.333333333,0,103,4.666666667,0.333333333,38,1,4.333333333,38,1,2.5
636944079,gridcompare_block,gridcompare_trial,98,50,2749,nexus2_9_tw_2.00.jpg,nexus2_11_tw_3.00.jpg,nexus2_18_tw_-3.00.jpg,nexus2_10_tw_3.00.jpg,nexus2_3_tw_-2.00.jpg,nexus2_24_tw_3.00.jpg,nexus2_13_tw_-1.00.jpg,nexus2_22_tw_3.00.jpg,2,3,-3,3,-2,3,-1,3,1.25,0.75,8.25,6.916666667,0,103,8.25,6.916666667,38,0,1.333333333,38,0,0.5
636944079,gridcompare_block,gridcompare_trial,99,38,2009,nexus2_11_tw_-3.00.jpg,nexus2_18_tw_-1.00.jpg,nexus2_13_tw_0.00.jpg,nexus2_14_tw_-2.00.jpg,nexus2_15_tw_3.00.jpg,nexus2_8_tw_0.00.jpg,nexus2_24_tw_2.00.jpg,nexus2_4_tw_3.00.jpg,-3,-1,0,-2,3,0,2,3,-1.5,2,1.666666667,2,0,103,1.666666667,2,50,0,0.333333333,50,0,3.5
636944079,gridcompare_block,gridcompare_trial,100,50,2658,nexus2_24_tw_3.00.jpg,nexus2_2_tw_3.00.jpg,nexus2_20_tw_0.00.jpg,nexus2_25_tw_-2.00.jpg,nexus2_3_tw_3.00.jpg,nexus2_15_tw_-2.00.jpg,nexus2_12_tw_3.00.jpg,nexus2_5_tw_2.00.jpg,3,3,0,-2,3,-2,3,2,1,1.5,6,5.666666667,0,103,6,5.666666667,38,0,0.333333333,50,1,0.5
636944079,gridcompare_block,gridcompare_trial,101,50,1794,nexus2_22_tw_2.00.jpg,nexus2_17_tw_0.00.jpg,nexus2_13_tw_-2.00.jpg,nexus2_1_tw_-1.00.jpg,nexus2_14_tw_3.00.jpg,nexus2_18_tw_-2.00.jpg,nexus2_6_tw_-1.00.jpg,nexus2_16_tw_3.00.jpg,2,0,-2,-1,3,-2,-1,3,-0.25,0.75,2.916666667,6.916666667,0,103,2.916666667,6.916666667,50,1,4,50,1,1
636944079,gridcompare_block,gridcompare_trial,102,38,323,nexus2_9_tw_3.00.jpg,nexus2_23_tw_-1.00.jpg,nexus2_7_tw_1.00.jpg,nexus2_15_tw_1.00.jpg,nexus2_6_tw_1.00.jpg,nexus2_5_tw_3.00.jpg,nexus2_2_tw_-1.00.jpg,nexus2_11_tw_1.00.jpg,3,-1,1,1,1,3,-1,1,1,1,2.666666667,2.666666667,1,104,2.666666667,2.666666667,NA,NA,0,NA,NA,0
636944079,gridcompare_block,gridcompare_trial,103,50,317,nexus2_15_tw_-1.00.jpg,nexus2_7_tw_3.00.jpg,nexus2_19_tw_1.00.jpg,nexus2_9_tw_3.00.jpg,nexus2_22_tw_0.00.jpg,nexus2_25_tw_0.00.jpg,nexus2_5_tw_-1.00.jpg,nexus2_12_tw_2.00.jpg,-1,3,1,3,0,0,-1,2,1.5,0.25,3.666666667,1.583333333,0,104,3.666666667,1.583333333,38,0,2.083333333,38,0,1.25
636944079,gridcompare_block,gridcompare_trial,104,38,663,nexus2_19_tw_2.00.jpg,nexus2_3_tw_2.00.jpg,nexus2_9_tw_-1.00.jpg,nexus2_13_tw_2.00.jpg,nexus2_23_tw_0.00.jpg,nexus2_16_tw_-2.00.jpg,nexus2_14_tw_-3.00.jpg,nexus2_5_tw_1.00.jpg,2,2,-1,2,0,-2,-3,1,1.25,-1,2.25,3.333333333,0,104,2.25,3.333333333,50,0,1.083333333,38,1,2.25
636944079,expt_end,expt_end,1,57,8036,0,0,0,0,0,0,0,0,2,2,-1,2,0,-2,-3,1,1.25,-1,2.25,3.333333333,0,104,2.25,3.333333333,50,0,1.083333333,38,0,2.25
194299948,main_instructions,main_instructions1,1,57,171757,0,0,0,0,0,0,0,0,999,999,999,999,999,999,999,999,999,999,999,999,999,100,0,0,NA,NA,0,NA,NA,0
194299948,main_instructions,main_instructions2,2,57,13354,0,0,0,0,0,0,0,0,999,999,999,999,999,999,999,999,999,999,999,999,999,100,0,0,NA,NA,0,NA,NA,0
194299948,main_instructions,main_instructions3,3,57,80529,0,0,0,0,0,0,0,0,999,999,999,999,999,999,999,999,999,999,999,999,999,100,0,0,NA,NA,0,NA,NA,0
194299948,main_instructions,main_instructions4,4,57,8883,0,0,0,0,0,0,0,0,999,999,999,999,999,999,999,999,999,999,999,999,999,100,0,0,NA,NA,0,NA,NA,0
194299948,gridcompare_block,gridcompare_trial,1,38,3754,nexus2_5_tw_1.00.jpg,nexus2_24_tw_-3.00.jpg,nexus2_18_tw_0.00.jpg,nexus2_15_tw_2.00.jpg,nexus2_13_tw_-1.00.jpg,nexus2_22_tw_0.00.jpg,nexus2_4_tw_-2.00.jpg,nexus2_21_tw_-1.00.jpg,1,-3,0,2,-1,0,-2,-1,0,-1,4.666666667,0.666666667,0,100,4.666666667,0.666666667,38,1,4,38,1,1
194299948,gridcompare_block,gridcompare_trial,2,38,9408,nexus2_1_tw_-3.00.jpg,nexus2_8_tw_2.00.jpg,nexus2_25_tw_3.00.jpg,nexus2_11_tw_-3.00.jpg,nexus2_18_tw_-1.00.jpg,nexus2_15_tw_-3.00.jpg,nexus2_21_tw_-2.00.jpg,nexus2_17_tw_2.00.jpg,-3,2,3,-3,-1,-3,-2,2,-0.25,-1,10.25,4.666666667,0,100,10.25,4.666666667,38,1,5.583333333,38,1,0.75
194299948,gridcompare_block,gridcompare_trial,3,quitcommand,6344,nexus2_7_tw_1.00.jpg,nexus2_14_tw_-2.00.jpg,nexus2_20_tw_0.00.jpg,nexus2_12_tw_0.00.jpg,nexus2_19_tw_2.00.jpg,nexus2_9_tw_3.00.jpg,nexus2_24_tw_0.00.jpg,nexus2_10_tw_-3.00.jpg,1,-2,0,0,2,3,0,-3,-0.25,0.5,1.583333333,7,0,100,1.583333333,7,50,0,5.416666667,50,0,0.75
137409131,main_instructions,main_instructions1,1,57,1236,0,0,0,0,0,0,0,0,999,999,999,999,999,999,999,999,999,999,999,999,999,100,0,0,NA,NA,0,NA,NA,0
137409131,main_instructions,main_instructions2,2,57,2782,0,0,0,0,0,0,0,0,999,999,999,999,999,999,999,999,999,999,999,999,999,100,0,0,NA,NA,0,NA,NA,0
137409131,main_instructions,main_instructions3,3,57,2018,0,0,0,0,0,0,0,0,999,999,999,999,999,999,999,999,999,999,999,999,999,100,0,0,NA,NA,0,NA,NA,0
137409131,main_instructions,main_instructions4,4,57,831,0,0,0,0,0,0,0,0,999,999,999,999,999,999,999,999,999,999,999,999,999,100,0,0,NA,NA,0,NA,NA,0
137409131,gridcompare_block,gridcompare_trial,1,50,6431,nexus2_10_tw_-3.00.jpg,nexus2_22_tw_-1.00.jpg,nexus2_11_tw_-3.00.jpg,nexus2_16_tw_3.00.jpg,nexus2_5_tw_2.00.jpg,nexus2_17_tw_-3.00.jpg,nexus2_23_tw_-2.00.jpg,nexus2_7_tw_-1.00.jpg,-3,-1,-3,3,2,-3,-2,-1,-1,-1,8,4.666666667,0,100,8,4.666666667,38,0,3.333333333,NA,NA,0
137409131,gridcompare_block,gridcompare_trial,2,50,3248,nexus2_8_tw_2.00.jpg,nexus2_11_tw_2.00.jpg,nexus2_7_tw_-2.00.jpg,nexus2_5_tw_0.00.jpg,nexus2_16_tw_0.00.jpg,nexus2_12_tw_-3.00.jpg,nexus2_4_tw_-3.00.jpg,nexus2_6_tw_-3.00.jpg,2,2,-2,0,0,-3,-3,-3,0.5,-2.25,3.666666667,2.25,0,100,3.666666667,2.25,38,0,1.416666667,38,0,2.75
137409131,gridcompare_block,gridcompare_trial,3,50,91,nexus2_21_tw_-1.00.jpg,nexus2_2_tw_3.00.jpg,nexus2_15_tw_2.00.jpg,nexus2_6_tw_2.00.jpg,nexus2_1_tw_0.00.jpg,nexus2_23_tw_-3.00.jpg,nexus2_11_tw_1.00.jpg,nexus2_13_tw_3.00.jpg,-1,3,2,2,0,-3,1,3,1.5,0.25,3,6.25,0,100,3,6.25,50,1,3.25,38,0,1.25
137409131,gridcompare_block,gridcompare_trial,4,38,428,nexus2_22_tw_1.00.jpg,nexus2_9_tw_2.00.jpg,nexus2_24_tw_2.00.jpg,nexus2_13_tw_0.00.jpg,nexus2_5_tw_1.00.jpg,nexus2_16_tw_-3.00.jpg,nexus2_7_tw_3.00.jpg,nexus2_14_tw_1.00.jpg,1,2,2,0,1,-3,3,1,1.25,0.5,0.916666667,6.333333333,0,100,0.916666667,6.333333333,50,0,5.416666667,38,1,0.75
137409131,gridcompare_block,gridcompare_trial,5,38,486,nexus2_22_tw_2.00.jpg,nexus2_23_tw_3.00.jpg,nexus2_21_tw_3.00.jpg,nexus2_17_tw_-2.00.jpg,nexus2_18_tw_2.00.jpg,nexus2_5_tw_-1.00.jpg,nexus2_1_tw_3.00.jpg,nexus2_15_tw_-3.00.jpg,2,3,3,-2,2,-1,3,-3,1.5,0.25,5.666666667,7.583333333,0,100,5.666666667,7.583333333,50,0,1.916666667,38,1,1.25
137409131,gridcompare_block,gridcompare_trial,6,50,310,nexus2_2_tw_1.00.jpg,nexus2_15_tw_1.00.jpg,nexus2_14_tw_0.00.jpg,nexus2_13_tw_-3.00.jpg,nexus2_11_tw_-2.00.jpg,nexus2_12_tw_-1.00.jpg,nexus2_20_tw_-1.00.jpg,nexus2_22_tw_-3.00.jpg,1,1,0,-3,-2,-1,-1,-3,-0.25,-1.75,3.583333333,0.916666667,0,100,3.583333333,0.916666667,38,0,2.666666667,38,0,1.5
137409131,gridcompare_block,gridcompare_trial,7,50,110,nexus2_9_tw_1.00.jpg,nexus2_11_tw_-1.00.jpg,nexus2_21_tw_-2.00.jpg,nexus2_7_tw_-3.00.jpg,nexus2_5_tw_-2.00.jpg,nexus2_23_tw_-1.00.jpg,nexus2_22_tw_-2.00.jpg,nexus2_3_tw_3.00.jpg,1,-1,-2,-3,-2,-1,-2,3,-1.25,-0.5,2.916666667,5.666666667,0,100,2.916666667,5.666666667,50,1,2.75,50,1,0.75
137409131,gridcompare_block,gridcompare_trial,8,38,86,nexus2_5_tw_-3.00.jpg,nexus2_1_tw_-2.00.jpg,nexus2_25_tw_-2.00.jpg,nexus2_7_tw_0.00.jpg,nexus2_20_tw_0.00.jpg,nexus2_2_tw_0.00.jpg,nexus2_12_tw_-2.00.jpg,nexus2_22_tw_0.00.jpg,-3,-2,-2,0,0,0,-2,0,-1.75,-0.5,1.583333333,1,0,100,1.583333333,1,38,1,0.583333333,50,0,1.25
137409131,gridcompare_block,gridcompare_trial,9,50,35,nexus2_9_tw_-2.00.jpg,nexus2_25_tw_3.00.jpg,nexus2_18_tw_-3.00.jpg,nexus2_1_tw_-1.00.jpg,nexus2_16_tw_2.00.jpg,nexus2_17_tw_2.00.jpg,nexus2_6_tw_-1.00.jpg,nexus2_2_tw_-2.00.jpg,-2,3,-3,-1,2,2,-1,-2,-0.75,0.25,6.916666667,4.25,0,100,6.916666667,4.25,38,0,2.666666667,50,1,1
137409131,gridcompare_block,gridcompare_trial,10,38,113,nexus2_8_tw_0.00.jpg,nexus2_23_tw_2.00.jpg,nexus2_7_tw_1.00.jpg,nexus2_11_tw_0.00.jpg,nexus2_24_tw_-1.00.jpg,nexus2_10_tw_-2.00.jpg,nexus2_19_tw_-3.00.jpg,nexus2_14_tw_-2.00.jpg,0,2,1,0,-1,-2,-3,-2,0.75,-2,0.916666667,0.666666667,0,100,0.916666667,0.666666667,38,1,0.25,38,1,2.75
137409131,gridcompare_block,gridcompare_trial,11,38,40,nexus2_23_tw_0.00.jpg,nexus2_9_tw_-3.00.jpg,nexus2_14_tw_3.00.jpg,nexus2_11_tw_3.00.jpg,nexus2_17_tw_-1.00.jpg,nexus2_10_tw_2.00.jpg,nexus2_2_tw_-1.00.jpg,nexus2_4_tw_2.00.jpg,0,-3,3,3,-1,2,-1,2,0.75,0.5,8.25,3,0,100,8.25,3,38,1,5.25,38,1,0.25
137409131,gridcompare_block,gridcompare_trial,12,50,38,nexus2_18_tw_-2.00.jpg,nexus2_16_tw_-1.00.jpg,nexus2_1_tw_-3.00.jpg,nexus2_13_tw_1.00.jpg,nexus2_10_tw_0.00.jpg,nexus2_8_tw_-1.00.jpg,nexus2_2_tw_2.00.jpg,nexus2_9_tw_0.00.jpg,-2,-1,-3,1,0,-1,2,0,-1.25,0.25,2.916666667,1.583333333,0,100,2.916666667,1.583333333,38,0,1.333333333,50,1,1.5
137409131,gridcompare_block,gridcompare_trial,13,38,224,nexus2_4_tw_0.00.jpg,nexus2_6_tw_-2.00.jpg,nexus2_13_tw_2.00.jpg,nexus2_5_tw_3.00.jpg,nexus2_14_tw_-3.00.jpg,nexus2_18_tw_0.00.jpg,nexus2_1_tw_1.00.jpg,nexus2_22_tw_3.00.jpg,0,-2,2,3,-3,0,1,3,0.75,0.25,4.916666667,6.25,0,100,4.916666667,6.25,50,0,1.333333333,38,1,0.5
137409131,gridcompare_block,gridcompare_trial,14,38,1081,nexus2_20_tw_-2.00.jpg,nexus2_25_tw_-3.00.jpg,nexus2_1_tw_2.00.jpg,nexus2_19_tw_1.00.jpg,nexus2_17_tw_1.00.jpg,nexus2_4_tw_3.00.jpg,nexus2_18_tw_-1.00.jpg,nexus2_2_tw_-3.00.jpg,-2,-3,2,1,1,3,-1,-3,-0.5,0,5.666666667,6.666666667,0,100,5.666666667,6.666666667,50,0,1,50,0,0.5
137409131,gridcompare_block,gridcompare_trial,15,38,2,nexus2_2_tw_-3.00.jpg,nexus2_7_tw_2.00.jpg,nexus2_15_tw_-1.00.jpg,nexus2_1_tw_3.00.jpg,nexus2_12_tw_1.00.jpg,nexus2_5_tw_3.00.jpg,nexus2_14_tw_2.00.jpg,nexus2_6_tw_0.00.jpg,-3,2,-1,3,1,3,2,0,0.25,1.5,7.583333333,1.666666667,0,100,7.583333333,1.666666667,38,1,5.916666667,50,0,1.25
137409131,gridcompare_block,gridcompare_trial,16,50,31,nexus2_6_tw_3.00.jpg,nexus2_3_tw_2.00.jpg,nexus2_4_tw_1.00.jpg,nexus2_20_tw_-3.00.jpg,nexus2_25_tw_2.00.jpg,nexus2_9_tw_3.00.jpg,nexus2_19_tw_2.00.jpg,nexus2_16_tw_1.00.jpg,3,2,1,-3,2,3,2,1,0.75,2,6.916666667,0.666666667,0,100,6.916666667,0.666666667,38,0,6.25,50,1,1.25
137409131,gridcompare_block,gridcompare_trial,17,38,136,nexus2_15_tw_3.00.jpg,nexus2_23_tw_1.00.jpg,nexus2_12_tw_2.00.jpg,nexus2_20_tw_2.00.jpg,nexus2_24_tw_-3.00.jpg,nexus2_6_tw_1.00.jpg,nexus2_9_tw_-1.00.jpg,nexus2_16_tw_-2.00.jpg,3,1,2,2,-3,1,-1,-2,2,-1.25,0.666666667,2.916666667,0,100,0.666666667,2.916666667,50,0,2.25,38,1,3.25
137409131,gridcompare_block,gridcompare_trial,18,50,25,nexus2_13_tw_-1.00.jpg,nexus2_12_tw_3.00.jpg,nexus2_21_tw_1.00.jpg,nexus2_5_tw_0.00.jpg,nexus2_3_tw_-1.00.jpg,nexus2_8_tw_3.00.jpg,nexus2_24_tw_-2.00.jpg,nexus2_20_tw_3.00.jpg,-1,3,1,0,-1,3,-2,3,0.75,0.75,2.916666667,6.916666667,0,100,2.916666667,6.916666667,50,1,4,NA,NA,0
137409131,gridcompare_block,gridcompare_trial,19,38,618,nexus2_1_tw_2.00.jpg,nexus2_16_tw_0.00.jpg,nexus2_9_tw_2.00.jpg,nexus2_3_tw_0.00.jpg,nexus2_24_tw_0.00.jpg,nexus2_14_tw_-1.00.jpg,nexus2_7_tw_-1.00.jpg,nexus2_4_tw_-1.00.jpg,2,0,2,0,0,-1,-1,-1,1,-0.75,1.333333333,0.25,0,100,1.333333333,0.25,38,1,1.083333333,38,1,1.75
137409131,gridcompare_block,gridcompare_trial,20,38,119,nexus2_16_tw_-2.00.jpg,nexus2_8_tw_-3.00.jpg,nexus2_3_tw_-3.00.jpg,nexus2_7_tw_-2.00.jpg,nexus2_5_tw_2.00.jpg,nexus2_18_tw_3.00.jpg,nexus2_11_tw_-3.00.jpg,nexus2_9_tw_0.00.jpg,-2,-3,-3,-2,2,3,-3,0,-2.5,0.5,0.333333333,7,0,100,0.333333333,7,50,0,6.666666667,50,0,3
137409131,gridcompare_block,gridcompare_trial,21,50,430,nexus2_2_tw_3.00.jpg,nexus2_9_tw_3.00.jpg,nexus2_5_tw_1.00.jpg,nexus2_24_tw_1.00.jpg,nexus2_1_tw_-2.00.jpg,nexus2_12_tw_0.00.jpg,nexus2_14_tw_-2.00.jpg,nexus2_11_tw_2.00.jpg,3,3,1,1,-2,0,-2,2,2,-0.5,1.333333333,3.666666667,0,100,1.333333333,3.666666667,50,1,2.333333333,38,0,2.5
137409131,gridcompare_block,gridcompare_trial,22,38,181,nexus2_5_tw_-2.00.jpg,nexus2_13_tw_-2.00.jpg,nexus2_14_tw_1.00.jpg,nexus2_4_tw_-2.00.jpg,nexus2_22_tw_-3.00.jpg,nexus2_25_tw_1.00.jpg,nexus2_3_tw_1.00.jpg,nexus2_10_tw_3.00.jpg,-2,-2,1,-2,-3,1,1,3,-1.25,0.5,2.25,6.333333333,0,100,2.25,6.333333333,50,0,4.083333333,50,0,1.75
137409131,gridcompare_block,gridcompare_trial,23,38,14,nexus2_9_tw_-2.00.jpg,nexus2_12_tw_-2.00.jpg,nexus2_23_tw_-3.00.jpg,nexus2_8_tw_1.00.jpg,nexus2_6_tw_2.00.jpg,nexus2_18_tw_1.00.jpg,nexus2_3_tw_-2.00.jpg,nexus2_21_tw_0.00.jpg,-2,-2,-3,1,2,1,-2,0,-1.5,0.25,3,2.916666667,0,100,3,2.916666667,38,1,0.083333333,50,0,1.75
137409131,gridcompare_block,gridcompare_trial,24,50,163,nexus2_22_tw_2.00.jpg,nexus2_20_tw_1.00.jpg,nexus2_13_tw_0.00.jpg,nexus2_9_tw_-1.00.jpg,nexus2_12_tw_0.00.jpg,nexus2_17_tw_3.00.jpg,nexus2_16_tw_-3.00.jpg,nexus2_19_tw_-2.00.jpg,2,1,0,-1,0,3,-3,-2,0.5,-0.5,1.666666667,7,0,100,1.666666667,7,50,1,5.333333333,38,0,1
137409131,gridcompare_block,gridcompare_trial,25,38,183,nexus2_16_tw_-1.00.jpg,nexus2_21_tw_-3.00.jpg,nexus2_17_tw_0.00.jpg,nexus2_19_tw_-1.00.jpg,nexus2_25_tw_0.00.jpg,nexus2_8_tw_-2.00.jpg,nexus2_15_tw_0.00.jpg,nexus2_3_tw_-2.00.jpg,-1,-3,0,-1,0,-2,0,-2,-1.25,-1,1.583333333,1.333333333,0,100,1.583333333,1.333333333,38,1,0.25,50,0,0.25
137409131,gridcompare_block,gridcompare_trial,26,50,60,nexus2_9_tw_1.00.jpg,nexus2_3_tw_2.00.jpg,nexus2_24_tw_3.00.jpg,nexus2_1_tw_1.00.jpg,nexus2_2_tw_-1.00.jpg,nexus2_18_tw_0.00.jpg,nexus2_5_tw_-3.00.jpg,nexus2_7_tw_0.00.jpg,1,2,3,1,-1,0,-3,0,1.75,-1,0.916666667,2,0,100,0.916666667,2,50,1,1.083333333,38,0,2.75
137409131,gridcompare_block,gridcompare_trial,27,50,109,nexus2_19_tw_3.00.jpg,nexus2_7_tw_1.00.jpg,nexus2_17_tw_-2.00.jpg,nexus2_1_tw_0.00.jpg,nexus2_2_tw_0.00.jpg,nexus2_24_tw_0.00.jpg,nexus2_25_tw_-1.00.jpg,nexus2_3_tw_3.00.jpg,3,1,-2,0,0,0,-1,3,0.5,0.5,4.333333333,3,0,100,4.333333333,3,38,0,1.333333333,NA,NA,0
137409131,gridcompare_block,gridcompare_trial,28,38,28,nexus2_2_tw_-2.00.jpg,nexus2_1_tw_-1.00.jpg,nexus2_20_tw_-3.00.jpg,nexus2_5_tw_-1.00.jpg,nexus2_12_tw_3.00.jpg,nexus2_16_tw_1.00.jpg,nexus2_3_tw_-3.00.jpg,nexus2_21_tw_2.00.jpg,-2,-1,-3,-1,3,1,-3,2,-1.75,0.75,0.916666667,6.916666667,0,100,0.916666667,6.916666667,50,0,6,50,0,2.5
137409131,gridcompare_block,gridcompare_trial,29,50,44,nexus2_23_tw_-1.00.jpg,nexus2_16_tw_3.00.jpg,nexus2_8_tw_0.00.jpg,nexus2_17_tw_3.00.jpg,nexus2_22_tw_0.00.jpg,nexus2_11_tw_1.00.jpg,nexus2_4_tw_-2.00.jpg,nexus2_15_tw_-2.00.jpg,-1,3,0,3,0,1,-2,-2,1.25,-0.75,4.25,2.25,0,100,4.25,2.25,38,0,2,38,0,2
137409131,gridcompare_block,gridcompare_trial,30,38,407,nexus2_3_tw_0.00.jpg,nexus2_6_tw_0.00.jpg,nexus2_18_tw_2.00.jpg,nexus2_12_tw_1.00.jpg,nexus2_7_tw_3.00.jpg,nexus2_20_tw_-2.00.jpg,nexus2_2_tw_1.00.jpg,nexus2_15_tw_2.00.jpg,0,0,2,1,3,-2,1,2,0.75,1,0.916666667,4.666666667,0,100,0.916666667,4.666666667,50,0,3.75,50,0,0.25
137409131,gridcompare_block,gridcompare_trial,31,50,85,nexus2_1_tw_-3.00.jpg,nexus2_8_tw_1.00.jpg,nexus2_9_tw_-3.00.jpg,nexus2_23_tw_-2.00.jpg,nexus2_19_tw_0.00.jpg,nexus2_20_tw_3.00.jpg,nexus2_14_tw_-1.00.jpg,nexus2_16_tw_2.00.jpg,-3,1,-3,-2,0,3,-1,2,-1.75,1,3.583333333,3.333333333,0,100,3.583333333,3.333333333,38,0,0.25,50,1,2.75
137409131,gridcompare_block,gridcompare_trial,32,50,125,nexus2_8_tw_3.00.jpg,nexus2_20_tw_0.00.jpg,nexus2_14_tw_2.00.jpg,nexus2_12_tw_-3.00.jpg,nexus2_25_tw_-3.00.jpg,nexus2_19_tw_0.00.jpg,nexus2_11_tw_-1.00.jpg,nexus2_23_tw_1.00.jpg,3,0,2,-3,-3,0,-1,1,0.5,-0.75,7,2.916666667,0,100,7,2.916666667,38,0,4.083333333,38,0,1.25
137409131,gridcompare_block,gridcompare_trial,33,38,134,nexus2_21_tw_0.00.jpg,nexus2_19_tw_-3.00.jpg,nexus2_20_tw_2.00.jpg,nexus2_17_tw_0.00.jpg,nexus2_10_tw_1.00.jpg,nexus2_6_tw_-2.00.jpg,nexus2_3_tw_1.00.jpg,nexus2_24_tw_-3.00.jpg,0,-3,2,0,1,-2,1,-3,-0.25,-0.75,4.25,4.25,1,101,4.25,4.25,NA,NA,0,38,1,0.5
137409131,gridcompare_block,gridcompare_trial,34,50,27,nexus2_12_tw_-1.00.jpg,nexus2_7_tw_2.00.jpg,nexus2_9_tw_2.00.jpg,nexus2_13_tw_-1.00.jpg,nexus2_24_tw_-1.00.jpg,nexus2_1_tw_-1.00.jpg,nexus2_23_tw_3.00.jpg,nexus2_21_tw_-2.00.jpg,-1,2,2,-1,-1,-1,3,-2,0.5,-0.25,3,4.916666667,0,101,3,4.916666667,50,1,1.916666667,38,0,0.75
137409131,gridcompare_block,gridcompare_trial,35,38,84,nexus2_8_tw_2.00.jpg,nexus2_17_tw_-1.00.jpg,nexus2_2_tw_2.00.jpg,nexus2_9_tw_3.00.jpg,nexus2_24_tw_1.00.jpg,nexus2_11_tw_0.00.jpg,nexus2_12_tw_2.00.jpg,nexus2_5_tw_1.00.jpg,2,-1,2,3,1,0,2,1,1.5,1,3,0.666666667,0,101,3,0.666666667,38,1,2.333333333,38,1,0.5
137409131,gridcompare_block,gridcompare_trial,36,50,14,nexus2_12_tw_1.00.jpg,nexus2_19_tw_-1.00.jpg,nexus2_23_tw_2.00.jpg,nexus2_3_tw_-1.00.jpg,nexus2_1_tw_2.00.jpg,nexus2_5_tw_-2.00.jpg,nexus2_10_tw_-1.00.jpg,nexus2_4_tw_2.00.jpg,1,-1,2,-1,2,-2,-1,2,0.25,0.25,2.25,4.25,0,101,2.25,4.25,50,1,2,NA,NA,0
137409131,gridcompare_block,gridcompare_trial,37,38,56,nexus2_11_tw_3.00.jpg,nexus2_5_tw_2.00.jpg,nexus2_14_tw_3.00.jpg,nexus2_13_tw_-2.00.jpg,nexus2_16_tw_1.00.jpg,nexus2_23_tw_0.00.jpg,nexus2_17_tw_2.00.jpg,nexus2_7_tw_-3.00.jpg,3,2,3,-2,1,0,2,-3,1.5,0,5.666666667,4.666666667,0,101,5.666666667,4.666666667,38,1,1,38,1,1.5
137409131,gridcompare_block,gridcompare_trial,38,50,51,nexus2_14_tw_-3.00.jpg,nexus2_16_tw_-1.00.jpg,nexus2_6_tw_1.00.jpg,nexus2_11_tw_-2.00.jpg,nexus2_13_tw_3.00.jpg,nexus2_8_tw_-2.00.jpg,nexus2_4_tw_-3.00.jpg,nexus2_15_tw_-1.00.jpg,-3,-1,1,-2,3,-2,-3,-1,-1.25,-0.75,2.916666667,6.916666667,0,101,2.916666667,6.916666667,50,1,4,50,1,0.5
137409131,gridcompare_block,gridcompare_trial,39,50,8,nexus2_19_tw_3.00.jpg,nexus2_23_tw_-3.00.jpg,nexus2_21_tw_-3.00.jpg,nexus2_14_tw_0.00.jpg,nexus2_25_tw_1.00.jpg,nexus2_18_tw_3.00.jpg,nexus2_8_tw_-3.00.jpg,nexus2_5_tw_-1.00.jpg,3,-3,-3,0,1,3,-3,-1,-0.75,0,8.25,6.666666667,0,101,8.25,6.666666667,38,0,1.583333333,50,1,0.75
137409131,gridcompare_block,gridcompare_trial,40,38,155,nexus2_12_tw_-1.00.jpg,nexus2_15_tw_-3.00.jpg,nexus2_25_tw_-2.00.jpg,nexus2_7_tw_3.00.jpg,nexus2_16_tw_-3.00.jpg,nexus2_6_tw_-1.00.jpg,nexus2_8_tw_-1.00.jpg,nexus2_9_tw_-1.00.jpg,-1,-3,-2,3,-3,-1,-1,-1,-0.75,-1.5,6.916666667,1,0,101,6.916666667,1,38,1,5.916666667,38,1,0.75
137409131,gridcompare_block,gridcompare_trial,41,38,5,nexus2_4_tw_0.00.jpg,nexus2_23_tw_0.00.jpg,nexus2_25_tw_3.00.jpg,nexus2_6_tw_3.00.jpg,nexus2_2_tw_-3.00.jpg,nexus2_22_tw_-1.00.jpg,nexus2_14_tw_0.00.jpg,nexus2_5_tw_3.00.jpg,0,0,3,3,-3,-1,0,3,1.5,-0.25,3,6.25,0,101,3,6.25,50,0,3.25,38,1,1.75
137409131,gridcompare_block,gridcompare_trial,42,50,61,nexus2_3_tw_1.00.jpg,nexus2_6_tw_-3.00.jpg,nexus2_17_tw_1.00.jpg,nexus2_5_tw_0.00.jpg,nexus2_20_tw_-1.00.jpg,nexus2_12_tw_-2.00.jpg,nexus2_14_tw_3.00.jpg,nexus2_1_tw_1.00.jpg,1,-3,1,0,-1,-2,3,1,-0.25,0.25,3.583333333,4.916666667,0,101,3.583333333,4.916666667,50,1,1.333333333,50,1,0.5
137409131,gridcompare_block,gridcompare_trial,43,38,61,nexus2_12_tw_0.00.jpg,nexus2_25_tw_2.00.jpg,nexus2_14_tw_-1.00.jpg,nexus2_7_tw_0.00.jpg,nexus2_23_tw_2.00.jpg,nexus2_19_tw_-2.00.jpg,nexus2_8_tw_3.00.jpg,nexus2_22_tw_1.00.jpg,0,2,-1,0,2,-2,3,1,0.25,1,1.583333333,4.666666667,0,101,1.583333333,4.666666667,50,0,3.083333333,50,0,0.75
137409131,gridcompare_block,gridcompare_trial,44,38,85,nexus2_1_tw_3.00.jpg,nexus2_18_tw_-2.00.jpg,nexus2_7_tw_2.00.jpg,nexus2_17_tw_-3.00.jpg,nexus2_20_tw_1.00.jpg,nexus2_22_tw_-2.00.jpg,nexus2_21_tw_-1.00.jpg,nexus2_11_tw_-1.00.jpg,3,-2,2,-3,1,-2,-1,-1,0,-0.75,8.666666667,1.583333333,0,101,8.666666667,1.583333333,38,1,7.083333333,38,1,0.75
137409131,gridcompare_block,gridcompare_trial,45,38,110,nexus2_13_tw_1.00.jpg,nexus2_19_tw_2.00.jpg,nexus2_17_tw_-3.00.jpg,nexus2_12_tw_2.00.jpg,nexus2_21_tw_3.00.jpg,nexus2_1_tw_-2.00.jpg,nexus2_18_tw_-3.00.jpg,nexus2_16_tw_0.00.jpg,1,2,-3,2,3,-2,-3,0,0.5,-0.5,5.666666667,7,0,101,5.666666667,7,50,0,1.333333333,38,1,1
137409131,gridcompare_block,gridcompare_trial,46,38,34,nexus2_2_tw_-1.00.jpg,nexus2_24_tw_2.00.jpg,nexus2_17_tw_-2.00.jpg,nexus2_18_tw_-1.00.jpg,nexus2_14_tw_-3.00.jpg,nexus2_3_tw_-3.00.jpg,nexus2_11_tw_3.00.jpg,nexus2_1_tw_0.00.jpg,-1,2,-2,-1,-3,-3,3,0,-0.5,-0.75,3,8.25,0,101,3,8.25,50,0,5.25,38,1,0.25
137409131,gridcompare_block,gridcompare_trial,47,38,108,nexus2_17_tw_3.00.jpg,nexus2_15_tw_3.00.jpg,nexus2_22_tw_3.00.jpg,nexus2_20_tw_-3.00.jpg,nexus2_24_tw_-2.00.jpg,nexus2_6_tw_-3.00.jpg,nexus2_25_tw_-1.00.jpg,nexus2_19_tw_1.00.jpg,3,3,3,-3,-2,-3,-1,1,1.5,-1.25,9,2.916666667,0,101,9,2.916666667,38,1,6.083333333,38,1,2.75
137409131,gridcompare_block,gridcompare_trial,48,38,3,nexus2_16_tw_2.00.jpg,nexus2_4_tw_-1.00.jpg,nexus2_20_tw_1.00.jpg,nexus2_19_tw_3.00.jpg,nexus2_11_tw_-3.00.jpg,nexus2_3_tw_3.00.jpg,nexus2_7_tw_1.00.jpg,nexus2_8_tw_-1.00.jpg,2,-1,1,3,-3,3,1,-1,1.25,0,2.916666667,6.666666667,0,101,2.916666667,6.666666667,50,0,3.75,38,1,1.25
137409131,gridcompare_block,gridcompare_trial,49,50,165,nexus2_12_tw_3.00.jpg,nexus2_10_tw_1.00.jpg,nexus2_14_tw_2.00.jpg,nexus2_16_tw_3.00.jpg,nexus2_6_tw_1.00.jpg,nexus2_13_tw_2.00.jpg,nexus2_20_tw_-2.00.jpg,nexus2_19_tw_1.00.jpg,3,1,2,3,1,2,-2,1,2.25,0.5,0.916666667,3,0,101,0.916666667,3,50,1,2.083333333,38,0,1.75
137409131,gridcompare_block,gridcompare_trial,50,50,187,nexus2_3_tw_0.00.jpg,nexus2_23_tw_-2.00.jpg,nexus2_21_tw_1.00.jpg,nexus2_6_tw_0.00.jpg,nexus2_22_tw_3.00.jpg,nexus2_19_tw_2.00.jpg,nexus2_5_tw_-3.00.jpg,nexus2_9_tw_-3.00.jpg,0,-2,1,0,3,2,-3,-3,-0.25,-0.25,1.583333333,10.25,0,101,1.583333333,10.25,50,1,8.666666667,NA,NA,0
137409131,gridcompare_block,gridcompare_trial,51,50,135,nexus2_13_tw_-3.00.jpg,nexus2_14_tw_-2.00.jpg,nexus2_7_tw_-3.00.jpg,nexus2_4_tw_1.00.jpg,nexus2_24_tw_3.00.jpg,nexus2_23_tw_1.00.jpg,nexus2_10_tw_-3.00.jpg,nexus2_22_tw_-2.00.jpg,-3,-2,-3,1,3,1,-3,-2,-1.75,-0.25,3.583333333,7.583333333,0,101,3.583333333,7.583333333,50,1,4,50,1,1.5
137409131,gridcompare_block,gridcompare_trial,52,38,158,nexus2_23_tw_3.00.jpg,nexus2_10_tw_-2.00.jpg,nexus2_20_tw_-1.00.jpg,nexus2_18_tw_1.00.jpg,nexus2_11_tw_-2.00.jpg,nexus2_15_tw_-2.00.jpg,nexus2_7_tw_-1.00.jpg,nexus2_25_tw_0.00.jpg,3,-2,-1,1,-2,-2,-1,0,0.25,-1.25,4.916666667,0.916666667,0,101,4.916666667,0.916666667,38,1,4,38,1,1.5
137409131,gridcompare_block,gridcompare_trial,53,50,139,nexus2_11_tw_1.00.jpg,nexus2_23_tw_-1.00.jpg,nexus2_12_tw_-3.00.jpg,nexus2_6_tw_3.00.jpg,nexus2_10_tw_0.00.jpg,nexus2_16_tw_-2.00.jpg,nexus2_24_tw_3.00.jpg,nexus2_17_tw_-1.00.jpg,1,-1,-3,3,0,-2,3,-1,0,0,6.666666667,4.666666667,0,101,6.666666667,4.666666667,38,0,2,NA,NA,0
137409131,gridcompare_block,gridcompare_trial,54,38,152,nexus2_13_tw_0.00.jpg,nexus2_4_tw_3.00.jpg,nexus2_22_tw_-1.00.jpg,nexus2_11_tw_2.00.jpg,nexus2_20_tw_2.00.jpg,nexus2_24_tw_2.00.jpg,nexus2_18_tw_1.00.jpg,nexus2_5_tw_-3.00.jpg,0,3,-1,2,2,2,1,-3,1,0.5,3.333333333,5.666666667,0,101,3.333333333,5.666666667,50,0,2.333333333,38,1,0.5
137409131,gridcompare_block,gridcompare_trial,55,38,221,nexus2_9_tw_-2.00.jpg,nexus2_10_tw_-1.00.jpg,nexus2_8_tw_-2.00.jpg,nexus2_2_tw_2.00.jpg,nexus2_19_tw_-2.00.jpg,nexus2_17_tw_0.00.jpg,nexus2_20_tw_3.00.jpg,nexus2_22_tw_1.00.jpg,-2,-1,-2,2,-2,0,3,1,-0.75,0.5,3.583333333,4.333333333,0,101,3.583333333,4.333333333,50,0,0.75,50,0,1.25
137409131,gridcompare_block,gridcompare_trial,56,38,59,nexus2_9_tw_1.00.jpg,nexus2_12_tw_-3.00.jpg,nexus2_16_tw_0.00.jpg,nexus2_22_tw_2.00.jpg,nexus2_2_tw_1.00.jpg,nexus2_14_tw_1.00.jpg,nexus2_17_tw_2.00.jpg,nexus2_11_tw_0.00.jpg,1,-3,0,2,1,1,2,0,0,1,4.666666667,0.666666667,0,101,4.666666667,0.666666667,38,1,4,50,0,1
137409131,gridcompare_block,gridcompare_trial,57,38,127,nexus2_2_tw_0.00.jpg,nexus2_21_tw_2.00.jpg,nexus2_5_tw_0.00.jpg,nexus2_14_tw_-3.00.jpg,nexus2_8_tw_0.00.jpg,nexus2_6_tw_2.00.jpg,nexus2_22_tw_-3.00.jpg,nexus2_10_tw_2.00.jpg,0,2,0,-3,0,2,-3,2,-0.25,0.25,4.25,5.583333333,0,101,4.25,5.583333333,50,0,1.333333333,50,0,0.5
137409131,gridcompare_block,gridcompare_trial,58,38,44,nexus2_23_tw_-1.00.jpg,nexus2_15_tw_0.00.jpg,nexus2_3_tw_-1.00.jpg,nexus2_19_tw_-3.00.jpg,nexus2_18_tw_3.00.jpg,nexus2_17_tw_1.00.jpg,nexus2_4_tw_1.00.jpg,nexus2_13_tw_3.00.jpg,-1,0,-1,-3,3,1,1,3,-1.25,2,1.583333333,1.333333333,0,101,1.583333333,1.333333333,38,1,0.25,50,0,3.25
137409131,gridcompare_block,gridcompare_trial,59,50,105,nexus2_23_tw_0.00.jpg,nexus2_3_tw_2.00.jpg,nexus2_22_tw_0.00.jpg,nexus2_5_tw_3.00.jpg,nexus2_11_tw_-3.00.jpg,nexus2_15_tw_1.00.jpg,nexus2_19_tw_0.00.jpg,nexus2_7_tw_-2.00.jpg,0,2,0,3,-3,1,0,-2,1.25,-1,2.25,3.333333333,0,101,2.25,3.333333333,50,1,1.083333333,38,0,2.25
137409131,gridcompare_block,gridcompare_trial,60,38,140,nexus2_13_tw_-1.00.jpg,nexus2_4_tw_-1.00.jpg,nexus2_14_tw_1.00.jpg,nexus2_9_tw_0.00.jpg,nexus2_11_tw_3.00.jpg,nexus2_16_tw_-3.00.jpg,nexus2_1_tw_-3.00.jpg,nexus2_10_tw_3.00.jpg,-1,-1,1,0,3,-3,-3,3,-0.25,0,0.916666667,12,0,101,0.916666667,12,50,0,11.08333333,50,0,0.25
137409131,gridcompare_block,gridcompare_trial,61,50,145,nexus2_4_tw_-2.00.jpg,nexus2_7_tw_-1.00.jpg,nexus2_17_tw_3.00.jpg,nexus2_15_tw_-2.00.jpg,nexus2_21_tw_1.00.jpg,nexus2_16_tw_2.00.jpg,nexus2_5_tw_-1.00.jpg,nexus2_3_tw_-2.00.jpg,-2,-1,3,-2,1,2,-1,-2,-0.5,0,5.666666667,3.333333333,0,101,5.666666667,3.333333333,38,0,2.333333333,50,1,0.5
137409131,gridcompare_block,gridcompare_trial,62,50,26,nexus2_22_tw_-2.00.jpg,nexus2_21_tw_-3.00.jpg,nexus2_14_tw_-2.00.jpg,nexus2_3_tw_-1.00.jpg,nexus2_20_tw_0.00.jpg,nexus2_24_tw_-2.00.jpg,nexus2_10_tw_-2.00.jpg,nexus2_13_tw_1.00.jpg,-2,-3,-2,-1,0,-2,-2,1,-2,-0.75,0.666666667,2.25,0,101,0.666666667,2.25,50,1,1.583333333,50,1,1.25
137409131,gridcompare_block,gridcompare_trial,63,38,19,nexus2_15_tw_0.00.jpg,nexus2_4_tw_0.00.jpg,nexus2_12_tw_-2.00.jpg,nexus2_22_tw_3.00.jpg,nexus2_21_tw_-2.00.jpg,nexus2_23_tw_2.00.jpg,nexus2_6_tw_-1.00.jpg,nexus2_20_tw_-1.00.jpg,0,0,-2,3,-2,2,-1,-1,0.25,-0.5,4.25,3,0,101,4.25,3,38,1,1.25,38,1,0.75
137409131,gridcompare_block,gridcompare_trial,64,50,130,nexus2_15_tw_3.00.jpg,nexus2_10_tw_1.00.jpg,nexus2_5_tw_2.00.jpg,nexus2_21_tw_0.00.jpg,nexus2_11_tw_-1.00.jpg,nexus2_13_tw_-3.00.jpg,nexus2_9_tw_-3.00.jpg,nexus2_7_tw_1.00.jpg,3,1,2,0,-1,-3,-3,1,1.5,-1.5,1.666666667,3.666666667,0,101,1.666666667,3.666666667,50,1,2,38,0,3
137409131,gridcompare_block,gridcompare_trial,65,50,211,nexus2_7_tw_-2.00.jpg,nexus2_15_tw_-1.00.jpg,nexus2_3_tw_3.00.jpg,nexus2_14_tw_2.00.jpg,nexus2_8_tw_-3.00.jpg,nexus2_1_tw_-1.00.jpg,nexus2_2_tw_-2.00.jpg,nexus2_24_tw_0.00.jpg,-2,-1,3,2,-3,-1,-2,0,0.5,-1.5,5.666666667,1.666666667,0,101,5.666666667,1.666666667,38,0,4,38,0,2
137409131,gridcompare_block,gridcompare_trial,66,38,165,nexus2_14_tw_0.00.jpg,nexus2_10_tw_-3.00.jpg,nexus2_1_tw_-3.00.jpg,nexus2_25_tw_-3.00.jpg,nexus2_3_tw_-2.00.jpg,nexus2_15_tw_-3.00.jpg,nexus2_20_tw_1.00.jpg,nexus2_23_tw_3.00.jpg,0,-3,-3,-3,-2,-3,1,3,-2.25,-0.25,2.25,7.583333333,0,101,2.25,7.583333333,50,0,5.333333333,50,0,2
137409131,gridcompare_block,gridcompare_trial,67,50,254,nexus2_7_tw_0.00.jpg,nexus2_5_tw_1.00.jpg,nexus2_14_tw_3.00.jpg,nexus2_24_tw_-3.00.jpg,nexus2_3_tw_1.00.jpg,nexus2_11_tw_2.00.jpg,nexus2_23_tw_-2.00.jpg,nexus2_9_tw_-1.00.jpg,0,1,3,-3,1,2,-2,-1,0.25,0,6.25,3.333333333,0,101,6.25,3.333333333,38,0,2.916666667,38,0,0.25
137409131,gridcompare_block,gridcompare_trial,68,38,77,nexus2_10_tw_-1.00.jpg,nexus2_8_tw_1.00.jpg,nexus2_21_tw_2.00.jpg,nexus2_18_tw_0.00.jpg,nexus2_7_tw_-3.00.jpg,nexus2_22_tw_0.00.jpg,nexus2_5_tw_-2.00.jpg,nexus2_12_tw_1.00.jpg,-1,1,2,0,-3,0,-2,1,0.5,-1,1.666666667,3.333333333,0,101,1.666666667,3.333333333,50,0,1.666666667,38,1,1.5
137409131,gridcompare_block,gridcompare_trial,69,50,191,nexus2_4_tw_3.00.jpg,nexus2_5_tw_1.00.jpg,nexus2_7_tw_2.00.jpg,nexus2_9_tw_0.00.jpg,nexus2_17_tw_0.00.jpg,nexus2_25_tw_3.00.jpg,nexus2_16_tw_3.00.jpg,nexus2_19_tw_-1.00.jpg,3,1,2,0,0,3,3,-1,1.5,1.25,1.666666667,4.25,0,101,1.666666667,4.25,50,1,2.583333333,38,0,0.25
137409131,gridcompare_block,gridcompare_trial,70,38,252,nexus2_19_tw_0.00.jpg,nexus2_21_tw_3.00.jpg,nexus2_25_tw_2.00.jpg,nexus2_13_tw_2.00.jpg,nexus2_11_tw_0.00.jpg,nexus2_22_tw_2.00.jpg,nexus2_9_tw_1.00.jpg,nexus2_18_tw_2.00.jpg,0,3,2,2,0,2,1,2,1.75,1.25,1.583333333,0.916666667,0,101,1.583333333,0.916666667,38,1,0.666666667,38,1,0.5
137409131,gridcompare_block,gridcompare_trial,71,50,93,nexus2_2_tw_3.00.jpg,nexus2_14_tw_-1.00.jpg,nexus2_15_tw_2.00.jpg,nexus2_12_tw_3.00.jpg,nexus2_18_tw_-2.00.jpg,nexus2_3_tw_-3.00.jpg,nexus2_19_tw_-2.00.jpg,nexus2_24_tw_1.00.jpg,3,-1,2,3,-2,-3,-2,1,1.75,-1.5,3.583333333,3,0,101,3.583333333,3,38,0,0.583333333,38,0,3.25
137409131,gridcompare_block,gridcompare_trial,72,50,189,nexus2_14_tw_0.00.jpg,nexus2_6_tw_-2.00.jpg,nexus2_20_tw_-2.00.jpg,nexus2_18_tw_-3.00.jpg,nexus2_9_tw_3.00.jpg,nexus2_22_tw_1.00.jpg,nexus2_21_tw_-1.00.jpg,nexus2_3_tw_2.00.jpg,0,-2,-2,-3,3,1,-1,2,-1.75,1.25,1.583333333,2.916666667,0,101,1.583333333,2.916666667,50,1,1.333333333,50,1,3
137409131,gridcompare_block,gridcompare_trial,73,38,233,nexus2_22_tw_-3.00.jpg,nexus2_5_tw_0.00.jpg,nexus2_9_tw_2.00.jpg,nexus2_24_tw_-1.00.jpg,nexus2_4_tw_2.00.jpg,nexus2_2_tw_2.00.jpg,nexus2_11_tw_-2.00.jpg,nexus2_6_tw_-2.00.jpg,-3,0,2,-1,2,2,-2,-2,-0.5,0,4.333333333,5.333333333,0,101,4.333333333,5.333333333,50,0,1,50,0,0.5
137409131,gridcompare_block,gridcompare_trial,74,38,157,nexus2_18_tw_-1.00.jpg,nexus2_2_tw_1.00.jpg,nexus2_11_tw_1.00.jpg,nexus2_25_tw_-2.00.jpg,nexus2_24_tw_-1.00.jpg,nexus2_22_tw_-1.00.jpg,nexus2_23_tw_-3.00.jpg,nexus2_6_tw_1.00.jpg,-1,1,1,-2,-1,-1,-3,1,-0.25,-1,2.25,2.666666667,0,101,2.25,2.666666667,50,0,0.416666667,38,1,0.75
137409131,gridcompare_block,gridcompare_trial,75,38,145,nexus2_18_tw_2.00.jpg,nexus2_15_tw_1.00.jpg,nexus2_9_tw_-2.00.jpg,nexus2_12_tw_0.00.jpg,nexus2_17_tw_-3.00.jpg,nexus2_3_tw_0.00.jpg,nexus2_25_tw_-1.00.jpg,nexus2_8_tw_2.00.jpg,2,1,-2,0,-3,0,-1,2,0.25,-0.5,2.916666667,4.333333333,0,101,2.916666667,4.333333333,50,0,1.416666667,38,1,0.75
137409131,gridcompare_block,gridcompare_trial,76,38,70,nexus2_12_tw_-1.00.jpg,nexus2_24_tw_0.00.jpg,nexus2_1_tw_0.00.jpg,nexus2_17_tw_-2.00.jpg,nexus2_3_tw_1.00.jpg,nexus2_4_tw_-3.00.jpg,nexus2_19_tw_2.00.jpg,nexus2_16_tw_1.00.jpg,-1,0,0,-2,1,-3,2,1,-0.75,0.25,0.916666667,4.916666667,0,101,0.916666667,4.916666667,50,0,4,50,0,1
137409131,gridcompare_block,gridcompare_trial,77,50,219,nexus2_23_tw_1.00.jpg,nexus2_20_tw_3.00.jpg,nexus2_19_tw_1.00.jpg,nexus2_25_tw_0.00.jpg,nexus2_13_tw_-2.00.jpg,nexus2_12_tw_2.00.jpg,nexus2_4_tw_-2.00.jpg,nexus2_3_tw_-3.00.jpg,1,3,1,0,-2,2,-2,-3,1.25,-1.25,1.583333333,4.916666667,0,101,1.583333333,4.916666667,50,1,3.333333333,38,0,2.5
137409131,gridcompare_block,gridcompare_trial,78,38,227,nexus2_10_tw_3.00.jpg,nexus2_15_tw_-2.00.jpg,nexus2_25_tw_1.00.jpg,nexus2_3_tw_0.00.jpg,nexus2_16_tw_-2.00.jpg,nexus2_19_tw_-1.00.jpg,nexus2_2_tw_-3.00.jpg,nexus2_20_tw_2.00.jpg,3,-2,1,0,-2,-1,-3,2,0.5,-1,4.333333333,4.666666667,0,101,4.333333333,4.666666667,50,0,0.333333333,38,1,1.5
137409131,gridcompare_block,gridcompare_trial,79,50,46,nexus2_24_tw_2.00.jpg,nexus2_5_tw_-1.00.jpg,nexus2_3_tw_-1.00.jpg,nexus2_10_tw_2.00.jpg,nexus2_17_tw_2.00.jpg,nexus2_23_tw_1.00.jpg,nexus2_6_tw_0.00.jpg,nexus2_11_tw_-3.00.jpg,2,-1,-1,2,2,1,0,-3,0.5,0,3,4.666666667,0,101,3,4.666666667,50,1,1.666666667,38,0,0.5
137409131,gridcompare_block,gridcompare_trial,80,38,145,nexus2_25_tw_0.00.jpg,nexus2_1_tw_1.00.jpg,nexus2_23_tw_-2.00.jpg,nexus2_22_tw_2.00.jpg,nexus2_16_tw_-1.00.jpg,nexus2_13_tw_3.00.jpg,nexus2_24_tw_-2.00.jpg,nexus2_20_tw_-3.00.jpg,0,1,-2,2,-1,3,-2,-3,0.25,-0.75,2.916666667,6.916666667,0,101,2.916666667,6.916666667,50,0,4,38,1,1
137409131,gridcompare_block,gridcompare_trial,81,38,209,nexus2_5_tw_-2.00.jpg,nexus2_20_tw_0.00.jpg,nexus2_6_tw_-1.00.jpg,nexus2_2_tw_-1.00.jpg,nexus2_4_tw_0.00.jpg,nexus2_25_tw_2.00.jpg,nexus2_14_tw_3.00.jpg,nexus2_7_tw_3.00.jpg,-2,0,-1,-1,0,2,3,3,-1,2,0.666666667,2,0,101,0.666666667,2,50,0,1.333333333,50,0,3
137409131,gridcompare_block,gridcompare_trial,82,38,790,nexus2_7_tw_-3.00.jpg,nexus2_18_tw_0.00.jpg,nexus2_25_tw_3.00.jpg,nexus2_8_tw_-1.00.jpg,nexus2_14_tw_1.00.jpg,nexus2_23_tw_3.00.jpg,nexus2_9_tw_0.00.jpg,nexus2_24_tw_-3.00.jpg,-3,0,3,-1,1,3,0,-3,-0.25,0.25,6.25,6.25,1,102,6.25,6.25,NA,NA,0,50,0,0.5
137409131,gridcompare_block,gridcompare_trial,83,38,195,nexus2_7_tw_0.00.jpg,nexus2_16_tw_-2.00.jpg,nexus2_19_tw_-3.00.jpg,nexus2_9_tw_3.00.jpg,nexus2_6_tw_2.00.jpg,nexus2_17_tw_1.00.jpg,nexus2_21_tw_0.00.jpg,nexus2_23_tw_2.00.jpg,0,-2,-3,3,2,1,0,2,-0.5,1.25,7,0.916666667,0,102,7,0.916666667,38,1,6.083333333,50,0,1.75
137409131,gridcompare_block,gridcompare_trial,84,38,196,nexus2_15_tw_2.00.jpg,nexus2_14_tw_-3.00.jpg,nexus2_24_tw_3.00.jpg,nexus2_22_tw_1.00.jpg,nexus2_25_tw_-2.00.jpg,nexus2_19_tw_3.00.jpg,nexus2_1_tw_-2.00.jpg,nexus2_8_tw_-3.00.jpg,2,-3,3,1,-2,3,-2,-3,0.75,-1,6.916666667,7.333333333,0,102,6.916666667,7.333333333,50,0,0.416666667,38,1,1.75
