subject,blockcode,trialcode,trialnum,response,latency,stimulusitem3,stimulusitem4,stimulusitem5,stimulusitem6,stimulusitem8,values.gridface1_zscore,values.gridface2_zscore,values.gridface3_zscore,values.gridface4_zscore,values.compareface_zscore,values.trial_retry,values.nTrials,avg_grid,avg_compare,correct_resp,correct_num,easiness
269399402,main_instructions,main_instructions1,1,57,2913,0,0,0,0,0,999,999,999,999,999,999,100,999,999,NA,NA,0
269399402,main_instructions,main_instructions2,2,57,4301,0,0,0,0,0,999,999,999,999,999,999,100,999,999,NA,NA,0
269399402,main_instructions,main_instructions3,3,57,1368,0,0,0,0,0,999,999,999,999,999,999,100,999,999,NA,NA,0
269399402,gridcompare_block,gridcompare_trial,1,50,12,CFD-WM-220-N-crop.jpg,CFD-WM-249-N-crop.jpg,CFD-WM-254-N-crop.jpg,CFD-WM-238-N-crop.jpg,CFD-WM-208-N-crop.jpg,-2.151252165,-2.664674864,0.06235719,-0.619400824,1.112421257,0,100,-1.343242666,1.112421257,50,1,2.455663923
269399402,gridcompare_block,gridcompare_trial,2,50,2667,CFD-WM-016-N-crop.jpg,CFD-WM-208-N-crop.jpg,CFD-WM-205-N-crop.jpg,CFD-WM-021-N-crop.jpg,CFD-WM-214-N-crop.jpg,-0.378935788,1.112421257,-0.501229435,-0.619400824,1.507684178,0,100,-0.096786198,1.507684178,50,1,1.604470375
269399402,gridcompare_block,gridcompare_trial,3,50,935,CFD-WM-012-N-crop.jpg,CFD-WM-031-N-crop.jpg,CFD-WM-236-N-crop.jpg,CFD-WM-249-N-crop.jpg,CFD-WM-253-N-crop.jpg,0.442813909,0.53514723,-0.619400824,-2.664674864,-0.164895482,0,100,-0.576528637,-0.164895482,50,1,0.411633156
269399402,gridcompare_block,gridcompare_trial,4,38,957,CFD-WM-218-N-crop.jpg,CFD-WM-009-N-crop.jpg,CFD-WM-025-N-crop.jpg,CFD-WM-217-N-crop.jpg,CFD-WM-255-N-crop.jpg,-0.302870319,0.889853328,0.824170122,-0.278521819,-0.93593133,0,100,0.283157828,-0.93593133,38,1,1.219089158
269399402,gridcompare_block,gridcompare_trial,5,38,619,CFD-WM-025-N-crop.jpg,CFD-WM-016-N-crop.jpg,CFD-WM-024-N-crop.jpg,CFD-WM-209-N-crop.jpg,CFD-WM-204-N-crop.jpg,0.824170122,-0.378935788,1.686382376,0.963251708,0.168408437,0,100,0.773717104,0.168408437,38,1,0.605308668
269399402,gridcompare_block,gridcompare_trial,6,38,1377,CFD-WM-010-N-crop.jpg,CFD-WM-204-N-crop.jpg,CFD-WM-020-N-crop.jpg,CFD-WM-215-N-crop.jpg,CFD-WM-004-N-crop.jpg,-2.224990349,0.168408437,-0.417972321,-0.302870319,1.036297207,0,100,-0.694356138,1.036297207,50,0,1.730653345
269399402,gridcompare_block,gridcompare_trial,7,38,880,CFD-WM-223-N-crop.jpg,CFD-WM-245-N-crop.jpg,CFD-WM-255-N-crop.jpg,CFD-WM-218-N-crop.jpg,CFD-WM-217-N-crop.jpg,-0.619400824,-1.12876026,-0.93593133,-0.302870319,-0.278521819,0,100,-0.746740683,-0.278521819,50,0,0.468218864
269399402,gridcompare_block,gridcompare_trial,8,38,1473,CFD-WM-203-N-crop.jpg,CFD-WM-006-N-crop.jpg,CFD-WM-001-N-crop.jpg,CFD-WM-036-N-crop.jpg,CFD-WM-200-N-crop.jpg,0.980836736,0.65162865,0.015929223,-1.134683045,1.312246881,0,100,0.128427891,1.312246881,50,0,1.18381899
269399402,gridcompare_block,gridcompare_trial,9,38,684,CFD-WM-222-N-crop.jpg,CFD-WM-223-N-crop.jpg,CFD-WM-245-N-crop.jpg,CFD-WM-002-N-crop.jpg,CFD-WM-216-N-crop.jpg,-1.332504033,-0.619400824,-1.12876026,-0.693257943,-0.051269147,0,100,-0.943480765,-0.051269147,50,0,0.892211617
269399402,gridcompare_block,gridcompare_trial,10,50,5832,CFD-WM-012-N-crop.jpg,CFD-WM-231-N-crop.jpg,CFD-WM-019-N-crop.jpg,CFD-WM-006-N-crop.jpg,CFD-WM-211-N-crop.jpg,0.442813909,0.195574272,-1.518530958,0.65162865,-0.110041389,0,100,-0.057128532,-0.110041389,38,0,0.052912858
269399402,gridcompare_block,gridcompare_trial,11,50,37,CFD-WM-015-N-crop.jpg,CFD-WM-227-N-crop.jpg,CFD-WM-023-N-crop.jpg,CFD-WM-021-N-crop.jpg,CFD-WM-202-N-crop.jpg,0.30810717,-0.3625065,1.776852341,-0.619400824,1.653125887,0,100,0.275763047,1.653125887,50,1,1.37736284
269399402,gridcompare_block,gridcompare_trial,12,50,99,CFD-WM-221-N-crop.jpg,CFD-WM-029-N-crop.jpg,CFD-WM-033-N-crop.jpg,CFD-WM-239-N-crop.jpg,CFD-WM-018-N-crop.jpg,1.021868469,1.451994212,1.101226542,0.224680527,0.52948768,0,100,0.949942437,0.52948768,38,0,0.420454757
269399402,gridcompare_block,gridcompare_trial,13,50,530783,CFD-WM-033-N-crop.jpg,CFD-WM-028-N-crop.jpg,CFD-WM-023-N-crop.jpg,CFD-WM-032-N-crop.jpg,CFD-WM-200-N-crop.jpg,1.101226542,1.005455775,1.776852341,1.044506665,1.312246881,0,100,1.232010331,1.312246881,50,1,0.08023655
269399402,gridcompare_block,gridcompare_trial,14,50,1604,CFD-WM-022-N-crop.jpg,CFD-WM-200-N-crop.jpg,CFD-WM-210-N-crop.jpg,CFD-WM-216-N-crop.jpg,CFD-WM-218-N-crop.jpg,-0.586936157,1.312246881,0.330190693,-0.051269147,-0.302870319,0,100,0.251058067,-0.302870319,38,0,0.553928386
269399402,gridcompare_block,gridcompare_trial,15,50,72,CFD-WM-200-N-crop.jpg,CFD-WM-029-N-crop.jpg,CFD-WM-233-N-crop.jpg,CFD-WM-215-N-crop.jpg,CFD-WM-021-N-crop.jpg,1.312246881,1.451994212,-0.619400824,-0.302870319,-0.619400824,0,100,0.460492488,-0.619400824,38,0,1.079893312
269399402,gridcompare_block,gridcompare_trial,16,50,2429,CFD-WM-248-N-crop.jpg,CFD-WM-006-N-crop.jpg,CFD-WM-212-N-crop.jpg,CFD-WM-012-N-crop.jpg,CFD-WM-200-N-crop.jpg,0.06235719,0.65162865,0.80303256,0.442813909,1.312246881,0,100,0.489958077,1.312246881,50,1,0.822288804
269399402,gridcompare_block,gridcompare_trial,17,50,221,CFD-WM-015-N-crop.jpg,CFD-WM-221-N-crop.jpg,CFD-WM-209-N-crop.jpg,CFD-WM-206-N-crop.jpg,CFD-WM-223-N-crop.jpg,0.30810717,1.021868469,0.963251708,0.142995233,-0.619400824,0,100,0.609055645,-0.619400824,38,0,1.228456469
269399402,gridcompare_block,gridcompare_trial,18,50,66,CFD-WM-207-N-crop.jpg,CFD-WM-036-N-crop.jpg,CFD-WM-034-N-crop.jpg,CFD-WM-023-N-crop.jpg,CFD-WM-217-N-crop.jpg,0.36536075,-1.134683045,-0.078982888,1.776852341,-0.278521819,0,100,0.23213679,-0.278521819,38,0,0.510658608
269399402,gridcompare_block,gridcompare_trial,19,38,30,CFD-WM-017-N-crop.jpg,CFD-WM-223-N-crop.jpg,CFD-WM-001-N-crop.jpg,CFD-WM-243-N-crop.jpg,CFD-WM-258-N-crop.jpg,-1.191197868,-0.619400824,0.015929223,-1.919286104,0.36536075,0,100,-0.928488893,0.36536075,50,0,1.293849643
269399402,gridcompare_block,gridcompare_trial,20,50,206,CFD-WM-002-N-crop.jpg,CFD-WM-222-N-crop.jpg,CFD-WM-012-N-crop.jpg,CFD-WM-034-N-crop.jpg,CFD-WM-218-N-crop.jpg,-0.693257943,-1.332504033,0.442813909,-0.078982888,-0.302870319,0,100,-0.415482739,-0.302870319,50,1,0.11261242
269399402,gridcompare_block,gridcompare_trial,21,38,892,CFD-WM-021-N-crop.jpg,CFD-WM-258-N-crop.jpg,CFD-WM-032-N-crop.jpg,CFD-WM-216-N-crop.jpg,CFD-WM-256-N-crop.jpg,-0.619400824,0.36536075,1.044506665,-0.051269147,-0.619400824,0,100,0.184799361,-0.619400824,38,1,0.804200185
269399402,gridcompare_block,gridcompare_trial,22,50,948,CFD-WM-257-N-crop.jpg,CFD-WM-249-N-crop.jpg,CFD-WM-021-N-crop.jpg,CFD-WM-001-N-crop.jpg,CFD-WM-004-N-crop.jpg,2.10763123,-2.664674864,-0.619400824,0.015929223,1.036297207,0,100,-0.290128809,1.036297207,50,1,1.326426016
269399402,gridcompare_block,gridcompare_trial,23,38,258,CFD-WM-230-N-crop.jpg,CFD-WM-015-N-crop.jpg,CFD-WM-202-N-crop.jpg,CFD-WM-228-N-crop.jpg,CFD-WM-201-N-crop.jpg,0.541211032,0.30810717,1.653125887,-0.619400824,-0.234059337,0,100,0.470760816,-0.234059337,38,1,0.704820153
269399402,gridcompare_block,gridcompare_trial,24,38,341,CFD-WM-023-N-crop.jpg,CFD-WM-032-N-crop.jpg,CFD-WM-208-N-crop.jpg,CFD-WM-218-N-crop.jpg,CFD-WM-211-N-crop.jpg,1.776852341,1.044506665,1.112421257,-0.302870319,-0.110041389,0,100,0.907727486,-0.110041389,38,1,1.017768876
269399402,gridcompare_block,gridcompare_trial,25,38,5948,CFD-WM-001-N-crop.jpg,CFD-WM-018-N-crop.jpg,CFD-WM-252-N-crop.jpg,CFD-WM-219-N-crop.jpg,CFD-WM-016-N-crop.jpg,0.015929223,0.52948768,2.006630043,0.119170357,-0.378935788,0,100,0.667804326,-0.378935788,38,1,1.046740114
269399402,gridcompare_block,gridcompare_trial,26,38,346,CFD-WM-041-N-crop.jpg,CFD-WM-001-N-crop.jpg,CFD-WM-032-N-crop.jpg,CFD-WM-014-N-crop.jpg,CFD-WM-236-N-crop.jpg,-0.688913407,0.015929223,1.044506665,1.772163002,-0.619400824,0,100,0.535921371,-0.619400824,38,1,1.155322195
269399402,gridcompare_block,gridcompare_trial,27,38,1255,CFD-WM-241-N-crop.jpg,CFD-WM-210-N-crop.jpg,CFD-WM-215-N-crop.jpg,CFD-WM-036-N-crop.jpg,CFD-WM-041-N-crop.jpg,-0.291146966,0.330190693,-0.302870319,-1.134683045,-0.688913407,0,100,-0.349627409,-0.688913407,38,1,0.339285998
269399402,gridcompare_block,gridcompare_trial,28,50,453,CFD-WM-230-N-crop.jpg,CFD-WM-232-N-crop.jpg,CFD-WM-237-N-crop.jpg,CFD-WM-032-N-crop.jpg,CFD-WM-227-N-crop.jpg,0.541211032,-1.27590854,-0.619400824,1.044506665,-0.3625065,0,100,-0.077397917,-0.3625065,38,0,0.285108583
269399402,gridcompare_block,gridcompare_trial,29,38,70,CFD-WM-037-N-crop.jpg,CFD-WM-207-N-crop.jpg,CFD-WM-001-N-crop.jpg,CFD-WM-219-N-crop.jpg,CFD-WM-019-N-crop.jpg,-0.250115234,0.36536075,0.015929223,0.119170357,-1.518530958,0,100,0.062586274,-1.518530958,38,1,1.581117232
269399402,gridcompare_block,gridcompare_trial,30,50,3203,CFD-WM-026-N-crop.jpg,CFD-WM-235-N-crop.jpg,CFD-WM-201-N-crop.jpg,CFD-WM-244-N-crop.jpg,CFD-WM-219-N-crop.jpg,-0.104118604,-1.885522851,-0.234059337,-0.947654682,0.119170357,0,100,-0.792838869,0.119170357,50,1,0.912009226
269399402,gridcompare_block,gridcompare_trial,31,50,89,CFD-WM-201-N-crop.jpg,CFD-WM-247-N-crop.jpg,CFD-WM-251-N-crop.jpg,CFD-WM-202-N-crop.jpg,CFD-WM-035-N-crop.jpg,-0.234059337,0.06235719,0.562313066,1.653125887,-1.333623506,0,100,0.510934201,-1.333623506,38,0,1.844557707
269399402,gridcompare_block,gridcompare_trial,32,50,445,CFD-WM-204-N-crop.jpg,CFD-WM-254-N-crop.jpg,CFD-WM-258-N-crop.jpg,CFD-WM-240-N-crop.jpg,CFD-WM-012-N-crop.jpg,0.168408437,0.06235719,0.36536075,0.857741538,0.442813909,0,100,0.363466979,0.442813909,50,1,0.07934693
269399402,gridcompare_block,gridcompare_trial,33,50,582,CFD-WM-022-N-crop.jpg,CFD-WM-221-N-crop.jpg,CFD-WM-234-N-crop.jpg,CFD-WM-038-N-crop.jpg,CFD-WM-041-N-crop.jpg,-0.586936157,1.021868469,-1.026888371,-0.718983455,-0.688913407,0,100,-0.327734879,-0.688913407,38,0,0.361178528
269399402,gridcompare_block,gridcompare_trial,34,38,327,CFD-WM-251-N-crop.jpg,CFD-WM-244-N-crop.jpg,CFD-WM-038-N-crop.jpg,CFD-WM-011-N-crop.jpg,CFD-WM-022-N-crop.jpg,0.562313066,-0.947654682,-0.718983455,-0.451543737,-0.586936157,0,100,-0.388967202,-0.586936157,38,1,0.197968955
269399402,gridcompare_block,gridcompare_trial,35,50,893,CFD-WM-029-N-crop.jpg,CFD-WM-222-N-crop.jpg,CFD-WM-251-N-crop.jpg,CFD-WM-036-N-crop.jpg,CFD-WM-025-N-crop.jpg,1.451994212,-1.332504033,0.562313066,-1.134683045,0.824170122,0,100,-0.11321995,0.824170122,50,1,0.937390072
269399402,gridcompare_block,gridcompare_trial,36,38,231,CFD-WM-213-N-crop.jpg,CFD-WM-031-N-crop.jpg,CFD-WM-205-N-crop.jpg,CFD-WM-252-N-crop.jpg,CFD-WM-216-N-crop.jpg,1.034998622,0.53514723,-0.501229435,2.006630043,-0.051269147,0,100,0.768886615,-0.051269147,38,1,0.820155762
269399402,gridcompare_block,gridcompare_trial,37,50,161,CFD-WM-022-N-crop.jpg,CFD-WM-009-N-crop.jpg,CFD-WM-249-N-crop.jpg,CFD-WM-239-N-crop.jpg,CFD-WM-010-N-crop.jpg,-0.586936157,0.889853328,-2.664674864,0.224680527,-2.224990349,0,100,-0.534269292,-2.224990349,38,0,1.690721058
269399402,gridcompare_block,gridcompare_trial,38,50,224,CFD-WM-255-N-crop.jpg,CFD-WM-253-N-crop.jpg,CFD-WM-219-N-crop.jpg,CFD-WM-203-N-crop.jpg,CFD-WM-019-N-crop.jpg,-0.93593133,-0.164895482,0.119170357,0.980836736,-1.518530958,0,100,-0.00020493,-1.518530958,38,0,1.518326028
269399402,gridcompare_block,gridcompare_trial,39,50,101,CFD-WM-035-N-crop.jpg,CFD-WM-207-N-crop.jpg,CFD-WM-258-N-crop.jpg,CFD-WM-206-N-crop.jpg,CFD-WM-039-N-crop.jpg,-1.333623506,0.36536075,0.36536075,0.142995233,-0.549888242,0,100,-0.114976693,-0.549888242,38,0,0.434911549
269399402,gridcompare_block,gridcompare_trial,40,50,80,CFD-WM-031-N-crop.jpg,CFD-WM-213-N-crop.jpg,CFD-WM-018-N-crop.jpg,CFD-WM-216-N-crop.jpg,CFD-WM-240-N-crop.jpg,0.53514723,1.034998622,0.52948768,-0.051269147,0.857741538,0,100,0.512091096,0.857741538,50,1,0.345650442
269399402,gridcompare_block,gridcompare_trial,41,50,324,CFD-WM-021-N-crop.jpg,CFD-WM-034-N-crop.jpg,CFD-WM-039-N-crop.jpg,CFD-WM-206-N-crop.jpg,CFD-WM-033-N-crop.jpg,-0.619400824,-0.078982888,-0.549888242,0.142995233,1.101226542,0,100,-0.27631918,1.101226542,50,1,1.377545722
269399402,gridcompare_block,gridcompare_trial,42,38,3,CFD-WM-204-N-crop.jpg,CFD-WM-037-N-crop.jpg,CFD-WM-019-N-crop.jpg,CFD-WM-202-N-crop.jpg,CFD-WM-036-N-crop.jpg,0.168408437,-0.250115234,-1.518530958,1.653125887,-1.134683045,0,100,0.013222033,-1.134683045,38,1,1.147905078
269399402,gridcompare_block,gridcompare_trial,43,50,452,CFD-WM-037-N-crop.jpg,CFD-WM-222-N-crop.jpg,CFD-WM-206-N-crop.jpg,CFD-WM-218-N-crop.jpg,CFD-WM-010-N-crop.jpg,-0.250115234,-1.332504033,0.142995233,-0.302870319,-2.224990349,0,100,-0.435623588,-2.224990349,38,0,1.789366761
269399402,gridcompare_block,gridcompare_trial,44,50,356,CFD-WM-248-N-crop.jpg,CFD-WM-039-N-crop.jpg,CFD-WM-223-N-crop.jpg,CFD-WM-029-N-crop.jpg,CFD-WM-247-N-crop.jpg,0.06235719,-0.549888242,-0.619400824,1.451994212,0.06235719,0,100,0.086265584,0.06235719,38,0,0.023908394
269399402,gridcompare_block,gridcompare_trial,45,50,386,CFD-WM-026-N-crop.jpg,CFD-WM-233-N-crop.jpg,CFD-WM-028-N-crop.jpg,CFD-WM-004-N-crop.jpg,CFD-WM-037-N-crop.jpg,-0.104118604,-0.619400824,1.005455775,1.036297207,-0.250115234,0,100,0.329558388,-0.250115234,38,0,0.579673622
269399402,gridcompare_block,gridcompare_trial,46,50,589,CFD-WM-238-N-crop.jpg,CFD-WM-012-N-crop.jpg,CFD-WM-237-N-crop.jpg,CFD-WM-206-N-crop.jpg,CFD-WM-009-N-crop.jpg,-0.619400824,0.442813909,-0.619400824,0.142995233,0.889853328,0,100,-0.163248127,0.889853328,50,1,1.053101455
269399402,gridcompare_block,gridcompare_trial,47,38,374,CFD-WM-258-N-crop.jpg,CFD-WM-022-N-crop.jpg,CFD-WM-257-N-crop.jpg,CFD-WM-015-N-crop.jpg,CFD-WM-021-N-crop.jpg,0.36536075,-0.586936157,2.10763123,0.30810717,-0.619400824,0,100,0.548540748,-0.619400824,38,1,1.167941572
269399402,gridcompare_block,gridcompare_trial,48,50,650,CFD-WM-208-N-crop.jpg,CFD-WM-215-N-crop.jpg,CFD-WM-255-N-crop.jpg,CFD-WM-213-N-crop.jpg,CFD-WM-205-N-crop.jpg,1.112421257,-0.302870319,-0.93593133,1.034998622,-0.501229435,0,100,0.227154558,-0.501229435,38,0,0.728383993
269399402,gridcompare_block,gridcompare_trial,49,38,1160,CFD-WM-238-N-crop.jpg,CFD-WM-200-N-crop.jpg,CFD-WM-220-N-crop.jpg,CFD-WM-244-N-crop.jpg,CFD-WM-014-N-crop.jpg,-0.619400824,1.312246881,-2.151252165,-0.947654682,1.772163002,0,100,-0.601515198,1.772163002,50,0,2.3736782
269399402,gridcompare_block,gridcompare_trial,50,50,219,CFD-WM-204-N-crop.jpg,CFD-WM-016-N-crop.jpg,CFD-WM-221-N-crop.jpg,CFD-WM-037-N-crop.jpg,CFD-WM-219-N-crop.jpg,0.168408437,-0.378935788,1.021868469,-0.250115234,0.119170357,0,100,0.140306471,0.119170357,38,0,0.021136114
269399402,gridcompare_block,gridcompare_trial,51,38,520,CFD-WM-218-N-crop.jpg,CFD-WM-227-N-crop.jpg,CFD-WM-231-N-crop.jpg,CFD-WM-032-N-crop.jpg,CFD-WM-012-N-crop.jpg,-0.302870319,-0.3625065,0.195574272,1.044506665,0.442813909,0,100,0.14367603,0.442813909,50,0,0.299137879
269399402,gridcompare_block,gridcompare_trial,52,50,148,CFD-WM-018-N-crop.jpg,CFD-WM-228-N-crop.jpg,CFD-WM-033-N-crop.jpg,CFD-WM-224-N-crop.jpg,CFD-WM-038-N-crop.jpg,0.52948768,-0.619400824,1.101226542,-1.146951669,-0.718983455,0,100,-0.033909568,-0.718983455,38,0,0.685073887
269399402,gridcompare_block,gridcompare_trial,53,50,565,CFD-WM-001-N-crop.jpg,CFD-WM-034-N-crop.jpg,CFD-WM-228-N-crop.jpg,CFD-WM-214-N-crop.jpg,CFD-WM-202-N-crop.jpg,0.015929223,-0.078982888,-0.619400824,1.507684178,1.653125887,0,100,0.206307422,1.653125887,50,1,1.446818465
269399402,gridcompare_block,gridcompare_trial,54,50,3447,CFD-WM-040-N-crop.jpg,CFD-WM-233-N-crop.jpg,CFD-WM-200-N-crop.jpg,CFD-WM-237-N-crop.jpg,CFD-WM-229-N-crop.jpg,0.619492771,-0.619400824,1.312246881,-0.619400824,-0.742496022,0,100,0.173234501,-0.742496022,38,0,0.915730523
269399402,gridcompare_block,gridcompare_trial,55,50,297,CFD-WM-011-N-crop.jpg,CFD-WM-247-N-crop.jpg,CFD-WM-235-N-crop.jpg,CFD-WM-242-N-crop.jpg,CFD-WM-257-N-crop.jpg,-0.451543737,0.06235719,-1.885522851,-0.211913278,2.10763123,0,100,-0.621655669,2.10763123,50,1,2.729286898
269399402,gridcompare_block,gridcompare_trial,56,38,681,CFD-WM-011-N-crop.jpg,CFD-WM-210-N-crop.jpg,CFD-WM-252-N-crop.jpg,CFD-WM-220-N-crop.jpg,CFD-WM-216-N-crop.jpg,-0.451543737,0.330190693,2.006630043,-2.151252165,-0.051269147,0,100,-0.066493792,-0.051269147,50,0,0.015224644
269399402,gridcompare_block,gridcompare_trial,57,50,157,CFD-WM-201-N-crop.jpg,CFD-WM-250-N-crop.jpg,CFD-WM-228-N-crop.jpg,CFD-WM-006-N-crop.jpg,CFD-WM-244-N-crop.jpg,-0.234059337,0.444141677,-0.619400824,0.65162865,-0.947654682,0,100,0.060577541,-0.947654682,38,0,1.008232224
269399402,gridcompare_block,gridcompare_trial,58,50,1406,CFD-WM-237-N-crop.jpg,CFD-WM-205-N-crop.jpg,CFD-WM-036-N-crop.jpg,CFD-WM-242-N-crop.jpg,CFD-WM-204-N-crop.jpg,-0.619400824,-0.501229435,-1.134683045,-0.211913278,0.168408437,0,100,-0.616806646,0.168408437,50,1,0.785215082
269399402,gridcompare_block,gridcompare_trial,59,38,180,CFD-WM-204-N-crop.jpg,CFD-WM-213-N-crop.jpg,CFD-WM-237-N-crop.jpg,CFD-WM-026-N-crop.jpg,CFD-WM-041-N-crop.jpg,0.168408437,1.034998622,-0.619400824,-0.104118604,-0.688913407,0,100,0.119971908,-0.688913407,38,1,0.808885314
269399402,gridcompare_block,gridcompare_trial,60,50,290,CFD-WM-231-N-crop.jpg,CFD-WM-017-N-crop.jpg,CFD-WM-244-N-crop.jpg,CFD-WM-032-N-crop.jpg,CFD-WM-023-N-crop.jpg,0.195574272,-1.191197868,-0.947654682,1.044506665,1.776852341,0,100,-0.224692903,1.776852341,50,1,2.001545245
269399402,gridcompare_block,gridcompare_trial,61,50,124,CFD-WM-212-N-crop.jpg,CFD-WM-210-N-crop.jpg,CFD-WM-232-N-crop.jpg,CFD-WM-224-N-crop.jpg,CFD-WM-038-N-crop.jpg,0.80303256,0.330190693,-1.27590854,-1.146951669,-0.718983455,0,100,-0.322409239,-0.718983455,38,0,0.396574216
269399402,gridcompare_block,gridcompare_trial,62,50,285,CFD-WM-039-N-crop.jpg,CFD-WM-212-N-crop.jpg,CFD-WM-218-N-crop.jpg,CFD-WM-017-N-crop.jpg,CFD-WM-031-N-crop.jpg,-0.549888242,0.80303256,-0.302870319,-1.191197868,0.53514723,0,100,-0.310230967,0.53514723,50,1,0.845378197
269399402,gridcompare_block,gridcompare_trial,63,50,510,CFD-WM-021-N-crop.jpg,CFD-WM-251-N-crop.jpg,CFD-WM-225-N-crop.jpg,CFD-WM-239-N-crop.jpg,CFD-WM-029-N-crop.jpg,-0.619400824,0.562313066,1.459540279,0.224680527,1.451994212,0,100,0.406783262,1.451994212,50,1,1.04521095
269399402,gridcompare_block,gridcompare_trial,64,38,173,CFD-WM-012-N-crop.jpg,CFD-WM-041-N-crop.jpg,CFD-WM-209-N-crop.jpg,CFD-WM-252-N-crop.jpg,CFD-WM-231-N-crop.jpg,0.442813909,-0.688913407,0.963251708,2.006630043,0.195574272,0,100,0.680945563,0.195574272,38,1,0.485371291
269399402,gridcompare_block,gridcompare_trial,65,50,116,CFD-WM-019-N-crop.jpg,CFD-WM-025-N-crop.jpg,CFD-WM-254-N-crop.jpg,CFD-WM-228-N-crop.jpg,CFD-WM-201-N-crop.jpg,-1.518530958,0.824170122,0.06235719,-0.619400824,-0.234059337,0,100,-0.312851118,-0.234059337,50,1,0.07879178
269399402,gridcompare_block,gridcompare_trial,66,50,135,CFD-WM-232-N-crop.jpg,CFD-WM-223-N-crop.jpg,CFD-WM-221-N-crop.jpg,CFD-WM-201-N-crop.jpg,CFD-WM-018-N-crop.jpg,-1.27590854,-0.619400824,1.021868469,-0.234059337,0.52948768,0,100,-0.276875058,0.52948768,50,1,0.806362739
269399402,gridcompare_block,gridcompare_trial,67,50,65,CFD-WM-004-N-crop.jpg,CFD-WM-227-N-crop.jpg,CFD-WM-233-N-crop.jpg,CFD-WM-210-N-crop.jpg,CFD-WM-028-N-crop.jpg,1.036297207,-0.3625065,-0.619400824,0.330190693,1.005455775,0,100,0.096145144,1.005455775,50,1,0.90931063
269399402,gridcompare_block,gridcompare_trial,68,50,46,CFD-WM-238-N-crop.jpg,CFD-WM-212-N-crop.jpg,CFD-WM-224-N-crop.jpg,CFD-WM-034-N-crop.jpg,CFD-WM-036-N-crop.jpg,-0.619400824,0.80303256,-1.146951669,-0.078982888,-1.134683045,0,100,-0.260575705,-1.134683045,38,0,0.87410734
269399402,gridcompare_block,gridcompare_trial,69,38,388,CFD-WM-010-N-crop.jpg,CFD-WM-009-N-crop.jpg,CFD-WM-230-N-crop.jpg,CFD-WM-238-N-crop.jpg,CFD-WM-015-N-crop.jpg,-2.224990349,0.889853328,0.541211032,-0.619400824,0.30810717,0,100,-0.353331703,0.30810717,50,0,0.661438873
269399402,gridcompare_block,gridcompare_trial,70,38,1984,CFD-WM-207-N-crop.jpg,CFD-WM-235-N-crop.jpg,CFD-WM-218-N-crop.jpg,CFD-WM-208-N-crop.jpg,CFD-WM-003-N-crop.jpg,0.36536075,-1.885522851,-0.302870319,1.112421257,1.089101185,0,100,-0.177652791,1.089101185,50,0,1.266753976
269399402,gridcompare_block,gridcompare_trial,71,50,39,CFD-WM-219-N-crop.jpg,CFD-WM-022-N-crop.jpg,CFD-WM-247-N-crop.jpg,CFD-WM-038-N-crop.jpg,CFD-WM-201-N-crop.jpg,0.119170357,-0.586936157,0.06235719,-0.718983455,-0.234059337,0,100,-0.281098016,-0.234059337,50,1,0.047038679
269399402,gridcompare_block,gridcompare_trial,72,50,93,CFD-WM-213-N-crop.jpg,CFD-WM-026-N-crop.jpg,CFD-WM-014-N-crop.jpg,CFD-WM-023-N-crop.jpg,CFD-WM-003-N-crop.jpg,1.034998622,-0.104118604,1.772163002,1.776852341,1.089101185,0,100,1.11997384,1.089101185,38,0,0.030872655
269399402,gridcompare_block,gridcompare_trial,73,50,392,CFD-WM-255-N-crop.jpg,CFD-WM-242-N-crop.jpg,CFD-WM-224-N-crop.jpg,CFD-WM-247-N-crop.jpg,CFD-WM-238-N-crop.jpg,-0.93593133,-0.211913278,-1.146951669,0.06235719,-0.619400824,0,100,-0.558109772,-0.619400824,38,0,0.061291053
269399402,gridcompare_block,gridcompare_trial,74,38,92,CFD-WM-238-N-crop.jpg,CFD-WM-232-N-crop.jpg,CFD-WM-024-N-crop.jpg,CFD-WM-035-N-crop.jpg,CFD-WM-006-N-crop.jpg,-0.619400824,-1.27590854,1.686382376,-1.333623506,0.65162865,0,100,-0.385637624,0.65162865,50,0,1.037266274
269399402,gridcompare_block,gridcompare_trial,75,50,423,CFD-WM-016-N-crop.jpg,CFD-WM-017-N-crop.jpg,CFD-WM-002-N-crop.jpg,CFD-WM-257-N-crop.jpg,CFD-WM-021-N-crop.jpg,-0.378935788,-1.191197868,-0.693257943,2.10763123,-0.619400824,0,100,-0.038940092,-0.619400824,38,0,0.580460732
269399402,gridcompare_block,gridcompare_trial,76,50,81,CFD-WM-201-N-crop.jpg,CFD-WM-019-N-crop.jpg,CFD-WM-041-N-crop.jpg,CFD-WM-251-N-crop.jpg,CFD-WM-024-N-crop.jpg,-0.234059337,-1.518530958,-0.688913407,0.562313066,1.686382376,0,100,-0.469797659,1.686382376,50,1,2.156180035
269399402,gridcompare_block,gridcompare_trial,77,50,269,CFD-WM-019-N-crop.jpg,CFD-WM-245-N-crop.jpg,CFD-WM-020-N-crop.jpg,CFD-WM-216-N-crop.jpg,CFD-WM-037-N-crop.jpg,-1.518530958,-1.12876026,-0.417972321,-0.051269147,-0.250115234,0,100,-0.779133171,-0.250115234,50,1,0.529017938
269399402,gridcompare_block,gridcompare_trial,78,38,71,CFD-WM-203-N-crop.jpg,CFD-WM-250-N-crop.jpg,CFD-WM-216-N-crop.jpg,CFD-WM-232-N-crop.jpg,CFD-WM-039-N-crop.jpg,0.980836736,0.444141677,-0.051269147,-1.27590854,-0.549888242,0,100,0.024450181,-0.549888242,38,1,0.574338423
269399402,gridcompare_block,gridcompare_trial,79,38,44,CFD-WM-232-N-crop.jpg,CFD-WM-225-N-crop.jpg,CFD-WM-239-N-crop.jpg,CFD-WM-017-N-crop.jpg,CFD-WM-023-N-crop.jpg,-1.27590854,1.459540279,0.224680527,-1.191197868,1.776852341,0,100,-0.195721401,1.776852341,50,0,1.972573742
269399402,gridcompare_block,gridcompare_trial,80,50,218,CFD-WM-221-N-crop.jpg,CFD-WM-247-N-crop.jpg,CFD-WM-233-N-crop.jpg,CFD-WM-003-N-crop.jpg,CFD-WM-219-N-crop.jpg,1.021868469,0.06235719,-0.619400824,1.089101185,0.119170357,0,100,0.388481505,0.119170357,38,0,0.269311148
269399402,gridcompare_block,gridcompare_trial,81,50,311,CFD-WM-024-N-crop.jpg,CFD-WM-014-N-crop.jpg,CFD-WM-254-N-crop.jpg,CFD-WM-211-N-crop.jpg,CFD-WM-224-N-crop.jpg,1.686382376,1.772163002,0.06235719,-0.110041389,-1.146951669,0,100,0.852715295,-1.146951669,38,0,1.999666964
269399402,gridcompare_block,gridcompare_trial,82,50,1702,CFD-WM-249-N-crop.jpg,CFD-WM-040-N-crop.jpg,CFD-WM-214-N-crop.jpg,CFD-WM-244-N-crop.jpg,CFD-WM-232-N-crop.jpg,-2.664674864,0.619492771,1.507684178,-0.947654682,-1.27590854,0,100,-0.371288149,-1.27590854,38,0,0.904620391
269399402,gridcompare_block,gridcompare_trial,83,50,412,CFD-WM-011-N-crop.jpg,CFD-WM-214-N-crop.jpg,CFD-WM-016-N-crop.jpg,CFD-WM-216-N-crop.jpg,CFD-WM-012-N-crop.jpg,-0.451543737,1.507684178,-0.378935788,-0.051269147,0.442813909,0,100,0.156483876,0.442813909,50,1,0.286330033
269399402,gridcompare_block,gridcompare_trial,84,50,327,CFD-WM-024-N-crop.jpg,CFD-WM-207-N-crop.jpg,CFD-WM-232-N-crop.jpg,CFD-WM-031-N-crop.jpg,CFD-WM-230-N-crop.jpg,1.686382376,0.36536075,-1.27590854,0.53514723,0.541211032,0,100,0.327745454,0.541211032,50,1,0.213465579
269399402,gridcompare_block,gridcompare_trial,85,50,13,CFD-WM-237-N-crop.jpg,CFD-WM-015-N-crop.jpg,CFD-WM-003-N-crop.jpg,CFD-WM-212-N-crop.jpg,CFD-WM-209-N-crop.jpg,-0.619400824,0.30810717,1.089101185,0.80303256,0.963251708,0,100,0.395210023,0.963251708,50,1,0.568041685
269399402,gridcompare_block,gridcompare_trial,86,50,260,CFD-WM-234-N-crop.jpg,CFD-WM-243-N-crop.jpg,CFD-WM-250-N-crop.jpg,CFD-WM-011-N-crop.jpg,CFD-WM-256-N-crop.jpg,-1.026888371,-1.919286104,0.444141677,-0.451543737,-0.619400824,0,100,-0.738394134,-0.619400824,50,1,0.118993309
269399402,gridcompare_block,gridcompare_trial,87,50,270,CFD-WM-241-N-crop.jpg,CFD-WM-213-N-crop.jpg,CFD-WM-009-N-crop.jpg,CFD-WM-011-N-crop.jpg,CFD-WM-023-N-crop.jpg,-0.291146966,1.034998622,0.889853328,-0.451543737,1.776852341,0,100,0.295540312,1.776852341,50,1,1.48131203
269399402,gridcompare_block,gridcompare_trial,88,50,240,CFD-WM-204-N-crop.jpg,CFD-WM-200-N-crop.jpg,CFD-WM-258-N-crop.jpg,CFD-WM-256-N-crop.jpg,CFD-WM-018-N-crop.jpg,0.168408437,1.312246881,0.36536075,-0.619400824,0.52948768,0,100,0.306653811,0.52948768,50,1,0.222833869
269399402,gridcompare_block,gridcompare_trial,89,38,237,CFD-WM-247-N-crop.jpg,CFD-WM-229-N-crop.jpg,CFD-WM-201-N-crop.jpg,CFD-WM-227-N-crop.jpg,CFD-WM-251-N-crop.jpg,0.06235719,-0.742496022,-0.234059337,-0.3625065,0.562313066,0,100,-0.319176167,0.562313066,50,0,0.881489233
269399402,gridcompare_block,gridcompare_trial,90,50,128,CFD-WM-019-N-crop.jpg,CFD-WM-035-N-crop.jpg,CFD-WM-251-N-crop.jpg,CFD-WM-024-N-crop.jpg,CFD-WM-207-N-crop.jpg,-1.518530958,-1.333623506,0.562313066,1.686382376,0.36536075,0,100,-0.150864756,0.36536075,50,1,0.516225505
269399402,gridcompare_block,gridcompare_trial,91,50,154,CFD-WM-247-N-crop.jpg,CFD-WM-258-N-crop.jpg,CFD-WM-021-N-crop.jpg,CFD-WM-208-N-crop.jpg,CFD-WM-031-N-crop.jpg,0.06235719,0.36536075,-0.619400824,1.112421257,0.53514723,0,100,0.230184593,0.53514723,50,1,0.304962637
269399402,gridcompare_block,gridcompare_trial,92,50,298,CFD-WM-224-N-crop.jpg,CFD-WM-257-N-crop.jpg,CFD-WM-011-N-crop.jpg,CFD-WM-202-N-crop.jpg,CFD-WM-223-N-crop.jpg,-1.146951669,2.10763123,-0.451543737,1.653125887,-0.619400824,0,100,0.540565427,-0.619400824,38,0,1.159966252
269399402,gridcompare_block,gridcompare_trial,93,50,146,CFD-WM-035-N-crop.jpg,CFD-WM-202-N-crop.jpg,CFD-WM-231-N-crop.jpg,CFD-WM-223-N-crop.jpg,CFD-WM-006-N-crop.jpg,-1.333623506,1.653125887,0.195574272,-0.619400824,0.65162865,0,100,-0.026081043,0.65162865,50,1,0.677709693
269399402,gridcompare_block,gridcompare_trial,94,38,19,CFD-WM-201-N-crop.jpg,CFD-WM-212-N-crop.jpg,CFD-WM-214-N-crop.jpg,CFD-WM-015-N-crop.jpg,CFD-WM-253-N-crop.jpg,-0.234059337,0.80303256,1.507684178,0.30810717,-0.164895482,0,100,0.596191143,-0.164895482,38,1,0.761086624
269399402,gridcompare_block,gridcompare_trial,95,38,74,CFD-WM-034-N-crop.jpg,CFD-WM-010-N-crop.jpg,CFD-WM-243-N-crop.jpg,CFD-WM-224-N-crop.jpg,CFD-WM-236-N-crop.jpg,-0.078982888,-2.224990349,-1.919286104,-1.146951669,-0.619400824,0,100,-1.342552753,-0.619400824,50,0,0.723151928
269399402,gridcompare_block,gridcompare_trial,96,50,462,CFD-WM-021-N-crop.jpg,CFD-WM-208-N-crop.jpg,CFD-WM-016-N-crop.jpg,CFD-WM-225-N-crop.jpg,CFD-WM-029-N-crop.jpg,-0.619400824,1.112421257,-0.378935788,1.459540279,1.451994212,0,100,0.393406231,1.451994212,50,1,1.058587981
269399402,gridcompare_block,gridcompare_trial,97,38,206,CFD-WM-219-N-crop.jpg,CFD-WM-021-N-crop.jpg,CFD-WM-006-N-crop.jpg,CFD-WM-244-N-crop.jpg,CFD-WM-227-N-crop.jpg,0.119170357,-0.619400824,0.65162865,-0.947654682,-0.3625065,0,100,-0.199064125,-0.3625065,38,1,0.163442375
269399402,gridcompare_block,gridcompare_trial,98,50,75,CFD-WM-020-N-crop.jpg,CFD-WM-242-N-crop.jpg,CFD-WM-006-N-crop.jpg,CFD-WM-208-N-crop.jpg,CFD-WM-241-N-crop.jpg,-0.417972321,-0.211913278,0.65162865,1.112421257,-0.291146966,0,100,0.283541077,-0.291146966,38,0,0.574688044
269399402,gridcompare_block,gridcompare_trial,99,50,359,CFD-WM-207-N-crop.jpg,CFD-WM-231-N-crop.jpg,CFD-WM-238-N-crop.jpg,CFD-WM-236-N-crop.jpg,CFD-WM-025-N-crop.jpg,0.36536075,0.195574272,-0.619400824,-0.619400824,0.824170122,0,100,-0.169466657,0.824170122,50,1,0.993636779
269399402,gridcompare_block,gridcompare_trial,100,50,165,CFD-WM-207-N-crop.jpg,CFD-WM-220-N-crop.jpg,CFD-WM-031-N-crop.jpg,CFD-WM-019-N-crop.jpg,CFD-WM-213-N-crop.jpg,0.36536075,-2.151252165,0.53514723,-1.518530958,1.034998622,0,100,-0.692318786,1.034998622,50,1,1.727317408
269399402,expt_end,expt_end,1,57,1574,cbs_logo.jpg,0,0,0,0,0.36536075,-2.151252165,0.53514723,-1.518530958,1.034998622,0,100,-0.692318786,1.034998622,50,0,1.727317408
948186453,main_instructions,main_instructions1,1,57,3540,0,0,0,0,0,999,999,999,999,999,999,100,999,999,NA,NA,0
948186453,main_instructions,main_instructions2,2,57,3916,0,0,0,0,0,999,999,999,999,999,999,100,999,999,NA,NA,0
948186453,main_instructions,main_instructions3,3,57,1405,0,0,0,0,0,999,999,999,999,999,999,100,999,999,NA,NA,0
948186453,gridcompare_block,gridcompare_trial,1,50,1681,CFD-WM-202-N-crop.jpg,CFD-WM-254-N-crop.jpg,CFD-WM-252-N-crop.jpg,CFD-WM-041-N-crop.jpg,CFD-WM-025-N-crop.jpg,1.653125887,0.06235719,2.006630043,-0.688913407,0.824170122,0,100,0.758299928,0.824170122,50,1,0.065870194
948186453,gridcompare_block,gridcompare_trial,2,38,1808,CFD-WM-245-N-crop.jpg,CFD-WM-251-N-crop.jpg,CFD-WM-215-N-crop.jpg,CFD-WM-004-N-crop.jpg,CFD-WM-242-N-crop.jpg,-1.12876026,0.562313066,-0.302870319,1.036297207,-0.211913278,0,100,0.041744924,-0.211913278,38,1,0.253658201
948186453,gridcompare_block,gridcompare_trial,3,38,994,CFD-WM-229-N-crop.jpg,CFD-WM-218-N-crop.jpg,CFD-WM-206-N-crop.jpg,CFD-WM-009-N-crop.jpg,CFD-WM-232-N-crop.jpg,-0.742496022,-0.302870319,0.142995233,0.889853328,-1.27590854,0,100,-0.003129445,-1.27590854,38,1,1.272779096
948186453,gridcompare_block,gridcompare_trial,4,38,4427,CFD-WM-028-N-crop.jpg,CFD-WM-038-N-crop.jpg,CFD-WM-002-N-crop.jpg,CFD-WM-039-N-crop.jpg,CFD-WM-225-N-crop.jpg,1.005455775,-0.718983455,-0.693257943,-0.549888242,1.459540279,0,100,-0.239168466,1.459540279,50,0,1.698708746
948186453,gridcompare_block,gridcompare_trial,5,38,642,CFD-WM-035-N-crop.jpg,CFD-WM-020-N-crop.jpg,CFD-WM-253-N-crop.jpg,CFD-WM-029-N-crop.jpg,CFD-WM-251-N-crop.jpg,-1.333623506,-0.417972321,-0.164895482,1.451994212,0.562313066,0,100,-0.116124274,0.562313066,50,0,0.67843734
948186453,gridcompare_block,gridcompare_trial,6,50,3737,CFD-WM-034-N-crop.jpg,CFD-WM-214-N-crop.jpg,CFD-WM-036-N-crop.jpg,CFD-WM-254-N-crop.jpg,CFD-WM-248-N-crop.jpg,-0.078982888,1.507684178,-1.134683045,0.06235719,0.06235719,0,100,0.089093859,0.06235719,38,0,0.026736669
948186453,gridcompare_block,gridcompare_trial,7,38,1282,CFD-WM-218-N-crop.jpg,CFD-WM-231-N-crop.jpg,CFD-WM-252-N-crop.jpg,CFD-WM-016-N-crop.jpg,CFD-WM-257-N-crop.jpg,-0.302870319,0.195574272,2.006630043,-0.378935788,2.10763123,0,100,0.380099552,2.10763123,50,0,1.727531677
948186453,gridcompare_block,gridcompare_trial,8,50,897,CFD-WM-028-N-crop.jpg,CFD-WM-237-N-crop.jpg,CFD-WM-230-N-crop.jpg,CFD-WM-216-N-crop.jpg,CFD-WM-227-N-crop.jpg,1.005455775,-0.619400824,0.541211032,-0.051269147,-0.3625065,0,100,0.218999209,-0.3625065,38,0,0.581505708
948186453,gridcompare_block,gridcompare_trial,9,50,1183,CFD-WM-214-N-crop.jpg,CFD-WM-212-N-crop.jpg,CFD-WM-028-N-crop.jpg,CFD-WM-032-N-crop.jpg,CFD-WM-223-N-crop.jpg,1.507684178,0.80303256,1.005455775,1.044506665,-0.619400824,0,100,1.090169794,-0.619400824,38,0,1.709570619
948186453,gridcompare_block,gridcompare_trial,10,50,698,CFD-WM-009-N-crop.jpg,CFD-WM-255-N-crop.jpg,CFD-WM-211-N-crop.jpg,CFD-WM-257-N-crop.jpg,CFD-WM-213-N-crop.jpg,0.889853328,-0.93593133,-0.110041389,2.10763123,1.034998622,0,100,0.48787796,1.034998622,50,1,0.547120662
948186453,gridcompare_block,gridcompare_trial,11,50,814,CFD-WM-219-N-crop.jpg,CFD-WM-235-N-crop.jpg,CFD-WM-200-N-crop.jpg,CFD-WM-238-N-crop.jpg,CFD-WM-204-N-crop.jpg,0.119170357,-1.885522851,1.312246881,-0.619400824,0.168408437,0,100,-0.268376609,0.168408437,50,1,0.436785046
948186453,gridcompare_block,gridcompare_trial,12,50,942,CFD-WM-039-N-crop.jpg,CFD-WM-006-N-crop.jpg,CFD-WM-022-N-crop.jpg,CFD-WM-200-N-crop.jpg,CFD-WM-236-N-crop.jpg,-0.549888242,0.65162865,-0.586936157,1.312246881,-0.619400824,0,100,0.206762783,-0.619400824,38,0,0.826163607
948186453,gridcompare_block,gridcompare_trial,13,50,6666,CFD-WM-039-N-crop.jpg,CFD-WM-240-N-crop.jpg,CFD-WM-244-N-crop.jpg,CFD-WM-255-N-crop.jpg,CFD-WM-029-N-crop.jpg,-0.549888242,0.857741538,-0.947654682,-0.93593133,1.451994212,0,100,-0.393933179,1.451994212,50,1,1.845927391
948186453,gridcompare_block,gridcompare_trial,14,38,1996,CFD-WM-230-N-crop.jpg,CFD-WM-038-N-crop.jpg,CFD-WM-252-N-crop.jpg,CFD-WM-021-N-crop.jpg,CFD-WM-241-N-crop.jpg,0.541211032,-0.718983455,2.006630043,-0.619400824,-0.291146966,0,100,0.302364199,-0.291146966,38,1,0.593511165
948186453,gridcompare_block,gridcompare_trial,15,50,2840,CFD-WM-020-N-crop.jpg,CFD-WM-021-N-crop.jpg,CFD-WM-034-N-crop.jpg,CFD-WM-237-N-crop.jpg,CFD-WM-028-N-crop.jpg,-0.417972321,-0.619400824,-0.078982888,-0.619400824,1.005455775,0,100,-0.433939214,1.005455775,50,1,1.439394989
948186453,gridcompare_block,gridcompare_trial,16,38,2075,CFD-WM-227-N-crop.jpg,CFD-WM-230-N-crop.jpg,CFD-WM-004-N-crop.jpg,CFD-WM-251-N-crop.jpg,CFD-WM-003-N-crop.jpg,-0.3625065,0.541211032,1.036297207,0.562313066,1.089101185,0,100,0.444328701,1.089101185,50,0,0.644772484
948186453,gridcompare_block,gridcompare_trial,17,38,652,CFD-WM-240-N-crop.jpg,CFD-WM-201-N-crop.jpg,CFD-WM-211-N-crop.jpg,CFD-WM-200-N-crop.jpg,CFD-WM-010-N-crop.jpg,0.857741538,-0.234059337,-0.110041389,1.312246881,-2.224990349,0,100,0.456471923,-2.224990349,38,1,2.681462273
948186453,gridcompare_block,gridcompare_trial,18,50,4195,CFD-WM-024-N-crop.jpg,CFD-WM-039-N-crop.jpg,CFD-WM-238-N-crop.jpg,CFD-WM-028-N-crop.jpg,CFD-WM-209-N-crop.jpg,1.686382376,-0.549888242,-0.619400824,1.005455775,0.963251708,0,100,0.380637271,0.963251708,50,1,0.582614437
948186453,gridcompare_block,gridcompare_trial,19,50,4067,CFD-WM-231-N-crop.jpg,CFD-WM-218-N-crop.jpg,CFD-WM-256-N-crop.jpg,CFD-WM-002-N-crop.jpg,CFD-WM-023-N-crop.jpg,0.195574272,-0.302870319,-0.619400824,-0.693257943,1.776852341,0,100,-0.354988703,1.776852341,50,1,2.131841045
948186453,gridcompare_block,gridcompare_trial,20,38,23975,CFD-WM-208-N-crop.jpg,CFD-WM-204-N-crop.jpg,CFD-WM-203-N-crop.jpg,CFD-WM-233-N-crop.jpg,CFD-WM-020-N-crop.jpg,1.112421257,0.168408437,0.980836736,-0.619400824,-0.417972321,0,100,0.410566401,-0.417972321,38,1,0.828538722
948186453,gridcompare_block,gridcompare_trial,21,38,479,CFD-WM-038-N-crop.jpg,CFD-WM-228-N-crop.jpg,CFD-WM-255-N-crop.jpg,CFD-WM-002-N-crop.jpg,CFD-WM-009-N-crop.jpg,-0.718983455,-0.619400824,-0.93593133,-0.693257943,0.889853328,0,100,-0.741893388,0.889853328,50,0,1.631746716
948186453,gridcompare_block,gridcompare_trial,22,50,11668,CFD-WM-009-N-crop.jpg,CFD-WM-038-N-crop.jpg,CFD-WM-010-N-crop.jpg,CFD-WM-256-N-crop.jpg,CFD-WM-254-N-crop.jpg,0.889853328,-0.718983455,-2.224990349,-0.619400824,0.06235719,0,100,-0.668380325,0.06235719,50,1,0.730737515
948186453,gridcompare_block,gridcompare_trial,23,50,6112,CFD-WM-029-N-crop.jpg,CFD-WM-215-N-crop.jpg,CFD-WM-039-N-crop.jpg,CFD-WM-202-N-crop.jpg,CFD-WM-020-N-crop.jpg,1.451994212,-0.302870319,-0.549888242,1.653125887,-0.417972321,0,100,0.563090385,-0.417972321,38,0,0.981062706
948186453,gridcompare_block,gridcompare_trial,24,50,775,CFD-WM-022-N-crop.jpg,CFD-WM-209-N-crop.jpg,CFD-WM-039-N-crop.jpg,CFD-WM-023-N-crop.jpg,CFD-WM-231-N-crop.jpg,-0.586936157,0.963251708,-0.549888242,1.776852341,0.195574272,0,100,0.400819913,0.195574272,38,0,0.20524564
948186453,gridcompare_block,gridcompare_trial,25,50,3041,CFD-WM-018-N-crop.jpg,CFD-WM-204-N-crop.jpg,CFD-WM-238-N-crop.jpg,CFD-WM-038-N-crop.jpg,CFD-WM-219-N-crop.jpg,0.52948768,0.168408437,-0.619400824,-0.718983455,0.119170357,0,100,-0.160122041,0.119170357,50,1,0.279292398
948186453,gridcompare_block,gridcompare_trial,26,50,4573,CFD-WM-232-N-crop.jpg,CFD-WM-245-N-crop.jpg,CFD-WM-038-N-crop.jpg,CFD-WM-200-N-crop.jpg,CFD-WM-004-N-crop.jpg,-1.27590854,-1.12876026,-0.718983455,1.312246881,1.036297207,0,100,-0.452851344,1.036297207,50,1,1.489148551
948186453,gridcompare_block,gridcompare_trial,27,38,18662,CFD-WM-213-N-crop.jpg,CFD-WM-244-N-crop.jpg,CFD-WM-245-N-crop.jpg,CFD-WM-237-N-crop.jpg,CFD-WM-004-N-crop.jpg,1.034998622,-0.947654682,-1.12876026,-0.619400824,1.036297207,0,100,-0.415204286,1.036297207,50,0,1.451501493
948186453,gridcompare_block,gridcompare_trial,28,50,424,CFD-WM-028-N-crop.jpg,CFD-WM-006-N-crop.jpg,CFD-WM-010-N-crop.jpg,CFD-WM-002-N-crop.jpg,CFD-WM-235-N-crop.jpg,1.005455775,0.65162865,-2.224990349,-0.693257943,-1.885522851,0,100,-0.315290967,-1.885522851,38,0,1.570231884
948186453,gridcompare_block,gridcompare_trial,29,38,1431,CFD-WM-242-N-crop.jpg,CFD-WM-038-N-crop.jpg,CFD-WM-244-N-crop.jpg,CFD-WM-224-N-crop.jpg,CFD-WM-229-N-crop.jpg,-0.211913278,-0.718983455,-0.947654682,-1.146951669,-0.742496022,0,100,-0.756375771,-0.742496022,50,0,0.013879749
948186453,gridcompare_block,gridcompare_trial,30,50,4768,CFD-WM-021-N-crop.jpg,CFD-WM-214-N-crop.jpg,CFD-WM-009-N-crop.jpg,CFD-WM-036-N-crop.jpg,CFD-WM-219-N-crop.jpg,-0.619400824,1.507684178,0.889853328,-1.134683045,0.119170357,0,100,0.160863409,0.119170357,38,0,0.041693052
948186453,gridcompare_block,gridcompare_trial,31,38,362,CFD-WM-018-N-crop.jpg,CFD-WM-041-N-crop.jpg,CFD-WM-023-N-crop.jpg,CFD-WM-258-N-crop.jpg,CFD-WM-222-N-crop.jpg,0.52948768,-0.688913407,1.776852341,0.36536075,-1.332504033,0,100,0.495696841,-1.332504033,38,1,1.828200874
948186453,gridcompare_block,gridcompare_trial,32,38,7772,CFD-WM-248-N-crop.jpg,CFD-WM-228-N-crop.jpg,CFD-WM-244-N-crop.jpg,CFD-WM-223-N-crop.jpg,CFD-WM-225-N-crop.jpg,0.06235719,-0.619400824,-0.947654682,-0.619400824,1.459540279,0,100,-0.531024785,1.459540279,50,0,1.990565065
948186453,gridcompare_block,gridcompare_trial,33,38,340,CFD-WM-208-N-crop.jpg,CFD-WM-212-N-crop.jpg,CFD-WM-018-N-crop.jpg,CFD-WM-002-N-crop.jpg,CFD-WM-215-N-crop.jpg,1.112421257,0.80303256,0.52948768,-0.693257943,-0.302870319,0,100,0.437920889,-0.302870319,38,1,0.740791207
948186453,gridcompare_block,gridcompare_trial,34,38,79,CFD-WM-230-N-crop.jpg,CFD-WM-006-N-crop.jpg,CFD-WM-025-N-crop.jpg,CFD-WM-206-N-crop.jpg,CFD-WM-250-N-crop.jpg,0.541211032,0.65162865,0.824170122,0.142995233,0.444141677,0,100,0.540001259,0.444141677,38,1,0.095859583
948186453,gridcompare_block,gridcompare_trial,35,38,1988,CFD-WM-021-N-crop.jpg,CFD-WM-221-N-crop.jpg,CFD-WM-252-N-crop.jpg,CFD-WM-025-N-crop.jpg,CFD-WM-009-N-crop.jpg,-0.619400824,1.021868469,2.006630043,0.824170122,0.889853328,0,100,0.808316952,0.889853328,50,0,0.081536376
948186453,gridcompare_block,gridcompare_trial,36,38,2736,CFD-WM-018-N-crop.jpg,CFD-WM-019-N-crop.jpg,CFD-WM-020-N-crop.jpg,CFD-WM-215-N-crop.jpg,CFD-WM-221-N-crop.jpg,0.52948768,-1.518530958,-0.417972321,-0.302870319,1.021868469,0,100,-0.427471479,1.021868469,50,0,1.449339948
948186453,gridcompare_block,gridcompare_trial,37,50,5175,CFD-WM-236-N-crop.jpg,CFD-WM-013-N-crop.jpg,CFD-WM-239-N-crop.jpg,CFD-WM-201-N-crop.jpg,CFD-WM-033-N-crop.jpg,-0.619400824,-0.00106216,0.224680527,-0.234059337,1.101226542,0,100,-0.157460449,1.101226542,50,1,1.258686991
948186453,gridcompare_block,gridcompare_trial,38,50,834,CFD-WM-252-N-crop.jpg,CFD-WM-012-N-crop.jpg,CFD-WM-228-N-crop.jpg,CFD-WM-014-N-crop.jpg,CFD-WM-236-N-crop.jpg,2.006630043,0.442813909,-0.619400824,1.772163002,-0.619400824,0,100,0.900551532,-0.619400824,38,0,1.519952357
948186453,gridcompare_block,gridcompare_trial,39,50,1362,CFD-WM-002-N-crop.jpg,CFD-WM-021-N-crop.jpg,CFD-WM-210-N-crop.jpg,CFD-WM-006-N-crop.jpg,CFD-WM-024-N-crop.jpg,-0.693257943,-0.619400824,0.330190693,0.65162865,1.686382376,0,100,-0.082709856,1.686382376,50,1,1.769092232
948186453,gridcompare_block,gridcompare_trial,40,50,678,CFD-WM-002-N-crop.jpg,CFD-WM-228-N-crop.jpg,CFD-WM-217-N-crop.jpg,CFD-WM-209-N-crop.jpg,CFD-WM-210-N-crop.jpg,-0.693257943,-0.619400824,-0.278521819,0.963251708,0.330190693,0,100,-0.156982219,0.330190693,50,1,0.487172913
948186453,gridcompare_block,gridcompare_trial,41,38,1083,CFD-WM-002-N-crop.jpg,CFD-WM-237-N-crop.jpg,CFD-WM-239-N-crop.jpg,CFD-WM-229-N-crop.jpg,CFD-WM-013-N-crop.jpg,-0.693257943,-0.619400824,0.224680527,-0.742496022,-0.00106216,0,100,-0.457618566,-0.00106216,50,0,0.456556406
948186453,gridcompare_block,gridcompare_trial,42,38,74,CFD-WM-016-N-crop.jpg,CFD-WM-206-N-crop.jpg,CFD-WM-014-N-crop.jpg,CFD-WM-036-N-crop.jpg,CFD-WM-215-N-crop.jpg,-0.378935788,0.142995233,1.772163002,-1.134683045,-0.302870319,0,100,0.100384851,-0.302870319,38,1,0.403255169
948186453,gridcompare_block,gridcompare_trial,43,38,38350,CFD-WM-039-N-crop.jpg,CFD-WM-216-N-crop.jpg,CFD-WM-210-N-crop.jpg,CFD-WM-018-N-crop.jpg,CFD-WM-201-N-crop.jpg,-0.549888242,-0.051269147,0.330190693,0.52948768,-0.234059337,0,100,0.064630246,-0.234059337,38,1,0.298689583
948186453,gridcompare_block,gridcompare_trial,44,50,867,CFD-WM-016-N-crop.jpg,CFD-WM-233-N-crop.jpg,CFD-WM-255-N-crop.jpg,CFD-WM-014-N-crop.jpg,CFD-WM-207-N-crop.jpg,-0.378935788,-0.619400824,-0.93593133,1.772163002,0.36536075,0,100,-0.040526235,0.36536075,50,1,0.405886985
948186453,gridcompare_block,gridcompare_trial,45,38,842,CFD-WM-041-N-crop.jpg,CFD-WM-010-N-crop.jpg,CFD-WM-009-N-crop.jpg,CFD-WM-215-N-crop.jpg,CFD-WM-208-N-crop.jpg,-0.688913407,-2.224990349,0.889853328,-0.302870319,1.112421257,0,100,-0.581730187,1.112421257,50,0,1.694151444
948186453,gridcompare_block,gridcompare_trial,46,50,465,CFD-WM-217-N-crop.jpg,CFD-WM-033-N-crop.jpg,CFD-WM-200-N-crop.jpg,CFD-WM-035-N-crop.jpg,CFD-WM-019-N-crop.jpg,-0.278521819,1.101226542,1.312246881,-1.333623506,-1.518530958,0,100,0.200332025,-1.518530958,38,0,1.718862982
948186453,gridcompare_block,gridcompare_trial,47,50,2511,CFD-WM-212-N-crop.jpg,CFD-WM-013-N-crop.jpg,CFD-WM-228-N-crop.jpg,CFD-WM-242-N-crop.jpg,CFD-WM-204-N-crop.jpg,0.80303256,-0.00106216,-0.619400824,-0.211913278,0.168408437,0,100,-0.007335925,0.168408437,50,1,0.175744362
948186453,gridcompare_block,gridcompare_trial,48,38,9967,CFD-WM-204-N-crop.jpg,CFD-WM-213-N-crop.jpg,CFD-WM-228-N-crop.jpg,CFD-WM-229-N-crop.jpg,CFD-WM-037-N-crop.jpg,0.168408437,1.034998622,-0.619400824,-0.742496022,-0.250115234,0,100,-0.039622447,-0.250115234,38,1,0.210492787
948186453,gridcompare_block,gridcompare_trial,49,38,36,CFD-WM-200-N-crop.jpg,CFD-WM-224-N-crop.jpg,CFD-WM-239-N-crop.jpg,CFD-WM-228-N-crop.jpg,CFD-WM-258-N-crop.jpg,1.312246881,-1.146951669,0.224680527,-0.619400824,0.36536075,0,100,-0.057356272,0.36536075,50,0,0.422717021
948186453,gridcompare_block,gridcompare_trial,50,38,154,CFD-WM-213-N-crop.jpg,CFD-WM-040-N-crop.jpg,CFD-WM-006-N-crop.jpg,CFD-WM-214-N-crop.jpg,CFD-WM-231-N-crop.jpg,1.034998622,0.619492771,0.65162865,1.507684178,0.195574272,0,100,0.953451055,0.195574272,38,1,0.757876783
948186453,gridcompare_block,gridcompare_trial,51,50,452,CFD-WM-016-N-crop.jpg,CFD-WM-255-N-crop.jpg,CFD-WM-023-N-crop.jpg,CFD-WM-207-N-crop.jpg,CFD-WM-253-N-crop.jpg,-0.378935788,-0.93593133,1.776852341,0.36536075,-0.164895482,0,100,0.206836493,-0.164895482,38,0,0.371731975
948186453,gridcompare_block,gridcompare_trial,52,50,347,CFD-WM-218-N-crop.jpg,CFD-WM-243-N-crop.jpg,CFD-WM-035-N-crop.jpg,CFD-WM-213-N-crop.jpg,CFD-WM-202-N-crop.jpg,-0.302870319,-1.919286104,-1.333623506,1.034998622,1.653125887,0,100,-0.630195327,1.653125887,50,1,2.283321213
948186453,gridcompare_block,gridcompare_trial,53,38,2221,CFD-WM-232-N-crop.jpg,CFD-WM-036-N-crop.jpg,CFD-WM-224-N-crop.jpg,CFD-WM-037-N-crop.jpg,CFD-WM-018-N-crop.jpg,-1.27590854,-1.134683045,-1.146951669,-0.250115234,0.52948768,0,100,-0.951914622,0.52948768,50,0,1.481402302
948186453,gridcompare_block,gridcompare_trial,54,50,1288,CFD-WM-037-N-crop.jpg,CFD-WM-022-N-crop.jpg,CFD-WM-214-N-crop.jpg,CFD-WM-211-N-crop.jpg,CFD-WM-249-N-crop.jpg,-0.250115234,-0.586936157,1.507684178,-0.110041389,-2.664674864,0,100,0.140147849,-2.664674864,38,0,2.804822714
948186453,gridcompare_block,gridcompare_trial,55,50,2647,CFD-WM-248-N-crop.jpg,CFD-WM-240-N-crop.jpg,CFD-WM-037-N-crop.jpg,CFD-WM-256-N-crop.jpg,CFD-WM-214-N-crop.jpg,0.06235719,0.857741538,-0.250115234,-0.619400824,1.507684178,0,100,0.012645667,1.507684178,50,1,1.49503851
948186453,gridcompare_block,gridcompare_trial,56,38,3234,CFD-WM-017-N-crop.jpg,CFD-WM-012-N-crop.jpg,CFD-WM-217-N-crop.jpg,CFD-WM-003-N-crop.jpg,CFD-WM-229-N-crop.jpg,-1.191197868,0.442813909,-0.278521819,1.089101185,-0.742496022,0,100,0.015548852,-0.742496022,38,1,0.758044874
948186453,gridcompare_block,gridcompare_trial,57,38,1463,CFD-WM-025-N-crop.jpg,CFD-WM-234-N-crop.jpg,CFD-WM-227-N-crop.jpg,CFD-WM-210-N-crop.jpg,CFD-WM-016-N-crop.jpg,0.824170122,-1.026888371,-0.3625065,0.330190693,-0.378935788,0,100,-0.058758514,-0.378935788,38,1,0.320177274
948186453,gridcompare_block,gridcompare_trial,58,38,1151,CFD-WM-017-N-crop.jpg,CFD-WM-218-N-crop.jpg,CFD-WM-026-N-crop.jpg,CFD-WM-229-N-crop.jpg,CFD-WM-023-N-crop.jpg,-1.191197868,-0.302870319,-0.104118604,-0.742496022,1.776852341,0,100,-0.585170703,1.776852341,50,0,2.362023044
948186453,gridcompare_block,gridcompare_trial,59,38,1323,CFD-WM-033-N-crop.jpg,CFD-WM-242-N-crop.jpg,CFD-WM-013-N-crop.jpg,CFD-WM-212-N-crop.jpg,CFD-WM-225-N-crop.jpg,1.101226542,-0.211913278,-0.00106216,0.80303256,1.459540279,0,100,0.422820916,1.459540279,50,0,1.036719363
948186453,gridcompare_block,gridcompare_trial,60,38,720,CFD-WM-035-N-crop.jpg,CFD-WM-034-N-crop.jpg,CFD-WM-028-N-crop.jpg,CFD-WM-037-N-crop.jpg,CFD-WM-234-N-crop.jpg,-1.333623506,-0.078982888,1.005455775,-0.250115234,-1.026888371,0,100,-0.164316463,-1.026888371,38,1,0.862571908
948186453,gridcompare_block,gridcompare_trial,61,38,2029,CFD-WM-022-N-crop.jpg,CFD-WM-252-N-crop.jpg,CFD-WM-028-N-crop.jpg,CFD-WM-200-N-crop.jpg,CFD-WM-205-N-crop.jpg,-0.586936157,2.006630043,1.005455775,1.312246881,-0.501229435,0,100,0.934349135,-0.501229435,38,1,1.435578571
948186453,gridcompare_block,gridcompare_trial,62,38,4759,CFD-WM-222-N-crop.jpg,CFD-WM-241-N-crop.jpg,CFD-WM-215-N-crop.jpg,CFD-WM-213-N-crop.jpg,CFD-WM-029-N-crop.jpg,-1.332504033,-0.291146966,-0.302870319,1.034998622,1.451994212,0,100,-0.222880674,1.451994212,50,0,1.674874886
948186453,gridcompare_block,gridcompare_trial,63,50,1106,CFD-WM-026-N-crop.jpg,CFD-WM-011-N-crop.jpg,CFD-WM-037-N-crop.jpg,CFD-WM-019-N-crop.jpg,CFD-WM-041-N-crop.jpg,-0.104118604,-0.451543737,-0.250115234,-1.518530958,-0.688913407,0,100,-0.581077133,-0.688913407,38,0,0.107836274
948186453,gridcompare_block,gridcompare_trial,64,38,519,CFD-WM-209-N-crop.jpg,CFD-WM-038-N-crop.jpg,CFD-WM-018-N-crop.jpg,CFD-WM-029-N-crop.jpg,CFD-WM-233-N-crop.jpg,0.963251708,-0.718983455,0.52948768,1.451994212,-0.619400824,0,100,0.556437536,-0.619400824,38,1,1.175838361
948186453,gridcompare_block,gridcompare_trial,65,50,475,CFD-WM-225-N-crop.jpg,CFD-WM-214-N-crop.jpg,CFD-WM-006-N-crop.jpg,CFD-WM-010-N-crop.jpg,CFD-WM-238-N-crop.jpg,1.459540279,1.507684178,0.65162865,-2.224990349,-0.619400824,0,100,0.348465689,-0.619400824,38,0,0.967866514
948186453,gridcompare_block,gridcompare_trial,66,50,5657,CFD-WM-212-N-crop.jpg,CFD-WM-252-N-crop.jpg,CFD-WM-028-N-crop.jpg,CFD-WM-228-N-crop.jpg,CFD-WM-037-N-crop.jpg,0.80303256,2.006630043,1.005455775,-0.619400824,-0.250115234,0,100,0.798929388,-0.250115234,38,0,1.049044622
948186453,gridcompare_block,gridcompare_trial,67,38,529,CFD-WM-252-N-crop.jpg,CFD-WM-016-N-crop.jpg,CFD-WM-037-N-crop.jpg,CFD-WM-031-N-crop.jpg,CFD-WM-010-N-crop.jpg,2.006630043,-0.378935788,-0.250115234,0.53514723,-2.224990349,0,100,0.478181563,-2.224990349,38,1,2.703171912
948186453,gridcompare_block,gridcompare_trial,68,38,1469,CFD-WM-219-N-crop.jpg,CFD-WM-232-N-crop.jpg,CFD-WM-254-N-crop.jpg,CFD-WM-241-N-crop.jpg,CFD-WM-019-N-crop.jpg,0.119170357,-1.27590854,0.06235719,-0.291146966,-1.518530958,0,100,-0.34638199,-1.518530958,38,1,1.172148968
948186453,gridcompare_block,gridcompare_trial,69,50,10788,CFD-WM-237-N-crop.jpg,CFD-WM-229-N-crop.jpg,CFD-WM-213-N-crop.jpg,CFD-WM-023-N-crop.jpg,CFD-WM-205-N-crop.jpg,-0.619400824,-0.742496022,1.034998622,1.776852341,-0.501229435,0,100,0.362488529,-0.501229435,38,0,0.863717965
948186453,gridcompare_block,gridcompare_trial,70,38,202,CFD-WM-247-N-crop.jpg,CFD-WM-202-N-crop.jpg,CFD-WM-017-N-crop.jpg,CFD-WM-211-N-crop.jpg,CFD-WM-041-N-crop.jpg,0.06235719,1.653125887,-1.191197868,-0.110041389,-0.688913407,0,100,0.103560955,-0.688913407,38,1,0.792474362
948186453,gridcompare_block,gridcompare_trial,71,50,4730,CFD-WM-248-N-crop.jpg,CFD-WM-209-N-crop.jpg,CFD-WM-017-N-crop.jpg,CFD-WM-228-N-crop.jpg,CFD-WM-233-N-crop.jpg,0.06235719,0.963251708,-1.191197868,-0.619400824,-0.619400824,0,100,-0.196247449,-0.619400824,38,0,0.423153376
948186453,gridcompare_block,gridcompare_trial,72,50,4350,CFD-WM-202-N-crop.jpg,CFD-WM-232-N-crop.jpg,CFD-WM-240-N-crop.jpg,CFD-WM-011-N-crop.jpg,CFD-WM-231-N-crop.jpg,1.653125887,-1.27590854,0.857741538,-0.451543737,0.195574272,0,100,0.195853787,0.195574272,38,0,0.000279514
948186453,gridcompare_block,gridcompare_trial,73,50,3839,CFD-WM-015-N-crop.jpg,CFD-WM-229-N-crop.jpg,CFD-WM-248-N-crop.jpg,CFD-WM-031-N-crop.jpg,CFD-WM-239-N-crop.jpg,0.30810717,-0.742496022,0.06235719,0.53514723,0.224680527,0,100,0.040778892,0.224680527,50,1,0.183901635
948186453,gridcompare_block,gridcompare_trial,74,38,5637,CFD-WM-223-N-crop.jpg,CFD-WM-205-N-crop.jpg,CFD-WM-217-N-crop.jpg,CFD-WM-254-N-crop.jpg,CFD-WM-033-N-crop.jpg,-0.619400824,-0.501229435,-0.278521819,0.06235719,1.101226542,0,100,-0.334198722,1.101226542,50,0,1.435425264
948186453,gridcompare_block,gridcompare_trial,75,50,310,CFD-WM-031-N-crop.jpg,CFD-WM-202-N-crop.jpg,CFD-WM-255-N-crop.jpg,CFD-WM-022-N-crop.jpg,CFD-WM-016-N-crop.jpg,0.53514723,1.653125887,-0.93593133,-0.586936157,-0.378935788,0,100,0.166351407,-0.378935788,38,0,0.545287195
948186453,gridcompare_block,gridcompare_trial,76,50,282,CFD-WM-006-N-crop.jpg,CFD-WM-224-N-crop.jpg,CFD-WM-015-N-crop.jpg,CFD-WM-232-N-crop.jpg,CFD-WM-214-N-crop.jpg,0.65162865,-1.146951669,0.30810717,-1.27590854,1.507684178,0,100,-0.365781098,1.507684178,50,1,1.873465275
948186453,gridcompare_block,gridcompare_trial,77,50,791,CFD-WM-211-N-crop.jpg,CFD-WM-248-N-crop.jpg,CFD-WM-242-N-crop.jpg,CFD-WM-028-N-crop.jpg,CFD-WM-206-N-crop.jpg,-0.110041389,0.06235719,-0.211913278,1.005455775,0.142995233,0,100,0.186464574,0.142995233,38,0,0.043469341
948186453,gridcompare_block,gridcompare_trial,78,38,384,CFD-WM-037-N-crop.jpg,CFD-WM-029-N-crop.jpg,CFD-WM-209-N-crop.jpg,CFD-WM-219-N-crop.jpg,CFD-WM-026-N-crop.jpg,-0.250115234,1.451994212,0.963251708,0.119170357,-0.104118604,0,100,0.571075261,-0.104118604,38,1,0.675193865
948186453,gridcompare_block,gridcompare_trial,79,50,433,CFD-WM-251-N-crop.jpg,CFD-WM-239-N-crop.jpg,CFD-WM-212-N-crop.jpg,CFD-WM-019-N-crop.jpg,CFD-WM-210-N-crop.jpg,0.562313066,0.224680527,0.80303256,-1.518530958,0.330190693,0,100,0.017873799,0.330190693,50,1,0.312316894
948186453,gridcompare_block,gridcompare_trial,80,38,312,CFD-WM-214-N-crop.jpg,CFD-WM-200-N-crop.jpg,CFD-WM-209-N-crop.jpg,CFD-WM-240-N-crop.jpg,CFD-WM-219-N-crop.jpg,1.507684178,1.312246881,0.963251708,0.857741538,0.119170357,0,100,1.160231076,0.119170357,38,1,1.041060719
948186453,gridcompare_block,gridcompare_trial,81,38,188,CFD-WM-236-N-crop.jpg,CFD-WM-011-N-crop.jpg,CFD-WM-217-N-crop.jpg,CFD-WM-245-N-crop.jpg,CFD-WM-040-N-crop.jpg,-0.619400824,-0.451543737,-0.278521819,-1.12876026,0.619492771,0,100,-0.61955666,0.619492771,50,0,1.239049431
948186453,gridcompare_block,gridcompare_trial,82,50,34068,CFD-WM-229-N-crop.jpg,CFD-WM-213-N-crop.jpg,CFD-WM-021-N-crop.jpg,CFD-WM-014-N-crop.jpg,CFD-WM-221-N-crop.jpg,-0.742496022,1.034998622,-0.619400824,1.772163002,1.021868469,0,100,0.361316194,1.021868469,50,1,0.660552274
948186453,gridcompare_block,gridcompare_trial,83,50,708,CFD-WM-020-N-crop.jpg,CFD-WM-221-N-crop.jpg,CFD-WM-210-N-crop.jpg,CFD-WM-026-N-crop.jpg,CFD-WM-013-N-crop.jpg,-0.417972321,1.021868469,0.330190693,-0.104118604,-0.00106216,0,100,0.207492059,-0.00106216,38,0,0.208554219
948186453,gridcompare_block,gridcompare_trial,84,50,81,CFD-WM-004-N-crop.jpg,CFD-WM-228-N-crop.jpg,CFD-WM-212-N-crop.jpg,CFD-WM-249-N-crop.jpg,CFD-WM-243-N-crop.jpg,1.036297207,-0.619400824,0.80303256,-2.664674864,-1.919286104,0,100,-0.36118648,-1.919286104,38,0,1.558099623
948186453,gridcompare_block,gridcompare_trial,85,50,1757,CFD-WM-201-N-crop.jpg,CFD-WM-222-N-crop.jpg,CFD-WM-014-N-crop.jpg,CFD-WM-041-N-crop.jpg,CFD-WM-028-N-crop.jpg,-0.234059337,-1.332504033,1.772163002,-0.688913407,1.005455775,0,100,-0.120828444,1.005455775,50,1,1.126284218
948186453,gridcompare_block,gridcompare_trial,86,38,1458,CFD-WM-244-N-crop.jpg,CFD-WM-041-N-crop.jpg,CFD-WM-222-N-crop.jpg,CFD-WM-031-N-crop.jpg,CFD-WM-004-N-crop.jpg,-0.947654682,-0.688913407,-1.332504033,0.53514723,1.036297207,0,100,-0.608481223,1.036297207,50,0,1.64477843
948186453,gridcompare_block,gridcompare_trial,87,38,538,CFD-WM-022-N-crop.jpg,CFD-WM-221-N-crop.jpg,CFD-WM-243-N-crop.jpg,CFD-WM-018-N-crop.jpg,CFD-WM-006-N-crop.jpg,-0.586936157,1.021868469,-1.919286104,0.52948768,0.65162865,0,100,-0.238716528,0.65162865,50,0,0.890345178
948186453,gridcompare_block,gridcompare_trial,88,38,1405,CFD-WM-254-N-crop.jpg,CFD-WM-203-N-crop.jpg,CFD-WM-241-N-crop.jpg,CFD-WM-207-N-crop.jpg,CFD-WM-204-N-crop.jpg,0.06235719,0.980836736,-0.291146966,0.36536075,0.168408437,0,100,0.279351927,0.168408437,38,1,0.110943491
948186453,gridcompare_block,gridcompare_trial,89,38,1575,CFD-WM-018-N-crop.jpg,CFD-WM-021-N-crop.jpg,CFD-WM-227-N-crop.jpg,CFD-WM-012-N-crop.jpg,CFD-WM-035-N-crop.jpg,0.52948768,-0.619400824,-0.3625065,0.442813909,-1.333623506,0,100,-0.002401434,-1.333623506,38,1,1.331222072
948186453,gridcompare_block,gridcompare_trial,90,38,3923,CFD-WM-021-N-crop.jpg,CFD-WM-011-N-crop.jpg,CFD-WM-248-N-crop.jpg,CFD-WM-029-N-crop.jpg,CFD-WM-019-N-crop.jpg,-0.619400824,-0.451543737,0.06235719,1.451994212,-1.518530958,0,100,0.11085171,-1.518530958,38,1,1.629382668
948186453,gridcompare_block,gridcompare_trial,91,38,12365,CFD-WM-235-N-crop.jpg,CFD-WM-203-N-crop.jpg,CFD-WM-206-N-crop.jpg,CFD-WM-012-N-crop.jpg,CFD-WM-212-N-crop.jpg,-1.885522851,0.980836736,0.142995233,0.442813909,0.80303256,0,100,-0.079719243,0.80303256,50,0,0.882751804
948186453,gridcompare_block,gridcompare_trial,92,38,390,CFD-WM-221-N-crop.jpg,CFD-WM-237-N-crop.jpg,CFD-WM-236-N-crop.jpg,CFD-WM-002-N-crop.jpg,CFD-WM-243-N-crop.jpg,1.021868469,-0.619400824,-0.619400824,-0.693257943,-1.919286104,0,100,-0.227547781,-1.919286104,38,1,1.691738323
948186453,gridcompare_block,gridcompare_trial,93,50,5031,CFD-WM-231-N-crop.jpg,CFD-WM-247-N-crop.jpg,CFD-WM-254-N-crop.jpg,CFD-WM-014-N-crop.jpg,CFD-WM-204-N-crop.jpg,0.195574272,0.06235719,0.06235719,1.772163002,0.168408437,0,100,0.523112914,0.168408437,38,0,0.354704477
948186453,gridcompare_block,gridcompare_trial,94,50,1783,CFD-WM-216-N-crop.jpg,CFD-WM-247-N-crop.jpg,CFD-WM-242-N-crop.jpg,CFD-WM-201-N-crop.jpg,CFD-WM-029-N-crop.jpg,-0.051269147,0.06235719,-0.211913278,-0.234059337,1.451994212,0,100,-0.108721143,1.451994212,50,1,1.560715355
948186453,gridcompare_block,gridcompare_trial,95,38,43,CFD-WM-228-N-crop.jpg,CFD-WM-040-N-crop.jpg,CFD-WM-035-N-crop.jpg,CFD-WM-012-N-crop.jpg,CFD-WM-213-N-crop.jpg,-0.619400824,0.619492771,-1.333623506,0.442813909,1.034998622,0,100,-0.222679413,1.034998622,50,0,1.257678034
948186453,gridcompare_block,gridcompare_trial,96,38,465,CFD-WM-009-N-crop.jpg,CFD-WM-002-N-crop.jpg,CFD-WM-028-N-crop.jpg,CFD-WM-032-N-crop.jpg,CFD-WM-013-N-crop.jpg,0.889853328,-0.693257943,1.005455775,1.044506665,-0.00106216,0,100,0.561639456,-0.00106216,38,1,0.562701616
948186453,gridcompare_block,gridcompare_trial,97,50,343,CFD-WM-024-N-crop.jpg,CFD-WM-038-N-crop.jpg,CFD-WM-216-N-crop.jpg,CFD-WM-041-N-crop.jpg,CFD-WM-224-N-crop.jpg,1.686382376,-0.718983455,-0.051269147,-0.688913407,-1.146951669,0,100,0.056804092,-1.146951669,38,0,1.203755761
948186453,gridcompare_block,gridcompare_trial,98,38,858,CFD-WM-240-N-crop.jpg,CFD-WM-212-N-crop.jpg,CFD-WM-200-N-crop.jpg,CFD-WM-011-N-crop.jpg,CFD-WM-229-N-crop.jpg,0.857741538,0.80303256,1.312246881,-0.451543737,-0.742496022,0,100,0.630369311,-0.742496022,38,1,1.372865333
948186453,gridcompare_block,gridcompare_trial,99,38,1800,CFD-WM-228-N-crop.jpg,CFD-WM-248-N-crop.jpg,CFD-WM-205-N-crop.jpg,CFD-WM-200-N-crop.jpg,CFD-WM-247-N-crop.jpg,-0.619400824,0.06235719,-0.501229435,1.312246881,0.06235719,0,100,0.063493453,0.06235719,38,1,0.001136263
948186453,gridcompare_block,gridcompare_trial,100,50,1876,CFD-WM-016-N-crop.jpg,CFD-WM-015-N-crop.jpg,CFD-WM-227-N-crop.jpg,CFD-WM-210-N-crop.jpg,CFD-WM-200-N-crop.jpg,-0.378935788,0.30810717,-0.3625065,0.330190693,1.312246881,0,100,-0.025786106,1.312246881,50,1,1.338032987
948186453,expt_end,expt_end,1,57,3144,cbs_logo.jpg,0,0,0,0,-0.378935788,0.30810717,-0.3625065,0.330190693,1.312246881,0,100,-0.025786106,1.312246881,50,0,1.338032987
755168650,main_instructions,main_instructions1,1,57,6728,0,0,0,0,0,999,999,999,999,999,999,100,999,999,NA,NA,0
755168650,main_instructions,main_instructions2,2,57,1469,0,0,0,0,0,999,999,999,999,999,999,100,999,999,NA,NA,0
755168650,main_instructions,main_instructions3,3,57,1751,0,0,0,0,0,999,999,999,999,999,999,100,999,999,NA,NA,0
755168650,gridcompare_block,gridcompare_trial,1,50,2770,CFD-WM-249-N-crop.jpg,CFD-WM-251-N-crop.jpg,CFD-WM-011-N-crop.jpg,CFD-WM-224-N-crop.jpg,CFD-WM-004-N-crop.jpg,-2.664674864,0.562313066,-0.451543737,-1.146951669,1.036297207,0,100,-0.925214301,1.036297207,50,1,1.961511508
755168650,gridcompare_block,gridcompare_trial,2,50,1056,CFD-WM-024-N-crop.jpg,CFD-WM-218-N-crop.jpg,CFD-WM-011-N-crop.jpg,CFD-WM-212-N-crop.jpg,CFD-WM-211-N-crop.jpg,1.686382376,-0.302870319,-0.451543737,0.80303256,-0.110041389,0,100,0.43375022,-0.110041389,38,0,0.54379161
755168650,gridcompare_block,gridcompare_trial,3,50,1664,CFD-WM-010-N-crop.jpg,CFD-WM-026-N-crop.jpg,CFD-WM-244-N-crop.jpg,CFD-WM-236-N-crop.jpg,CFD-WM-003-N-crop.jpg,-2.224990349,-0.104118604,-0.947654682,-0.619400824,1.089101185,0,100,-0.974041115,1.089101185,50,1,2.0631423
755168650,gridcompare_block,gridcompare_trial,4,50,500,CFD-WM-036-N-crop.jpg,CFD-WM-018-N-crop.jpg,CFD-WM-012-N-crop.jpg,CFD-WM-026-N-crop.jpg,CFD-WM-219-N-crop.jpg,-1.134683045,0.52948768,0.442813909,-0.104118604,0.119170357,0,100,-0.066625015,0.119170357,50,1,0.185795372
755168650,gridcompare_block,gridcompare_trial,5,38,455,CFD-WM-004-N-crop.jpg,CFD-WM-241-N-crop.jpg,CFD-WM-039-N-crop.jpg,CFD-WM-210-N-crop.jpg,CFD-WM-024-N-crop.jpg,1.036297207,-0.291146966,-0.549888242,0.330190693,1.686382376,0,100,0.131363173,1.686382376,50,0,1.555019203
755168650,gridcompare_block,gridcompare_trial,6,50,797,CFD-WM-231-N-crop.jpg,CFD-WM-204-N-crop.jpg,CFD-WM-243-N-crop.jpg,CFD-WM-233-N-crop.jpg,CFD-WM-216-N-crop.jpg,0.195574272,0.168408437,-1.919286104,-0.619400824,-0.051269147,0,100,-0.543676055,-0.051269147,50,1,0.492406907
755168650,gridcompare_block,gridcompare_trial,7,50,3486,CFD-WM-202-N-crop.jpg,CFD-WM-223-N-crop.jpg,CFD-WM-243-N-crop.jpg,CFD-WM-257-N-crop.jpg,CFD-WM-016-N-crop.jpg,1.653125887,-0.619400824,-1.919286104,2.10763123,-0.378935788,0,100,0.305517547,-0.378935788,38,0,0.684453335
755168650,gridcompare_block,gridcompare_trial,8,38,995,CFD-WM-257-N-crop.jpg,CFD-WM-018-N-crop.jpg,CFD-WM-016-N-crop.jpg,CFD-WM-032-N-crop.jpg,CFD-WM-229-N-crop.jpg,2.10763123,0.52948768,-0.378935788,1.044506665,-0.742496022,0,100,0.825672447,-0.742496022,38,1,1.568168469
755168650,gridcompare_block,gridcompare_trial,9,50,813,CFD-WM-038-N-crop.jpg,CFD-WM-257-N-crop.jpg,CFD-WM-254-N-crop.jpg,CFD-WM-224-N-crop.jpg,CFD-WM-009-N-crop.jpg,-0.718983455,2.10763123,0.06235719,-1.146951669,0.889853328,0,100,0.076013324,0.889853328,50,1,0.813840004
755168650,gridcompare_block,gridcompare_trial,10,38,598,CFD-WM-209-N-crop.jpg,CFD-WM-211-N-crop.jpg,CFD-WM-243-N-crop.jpg,CFD-WM-222-N-crop.jpg,CFD-WM-029-N-crop.jpg,0.963251708,-0.110041389,-1.919286104,-1.332504033,1.451994212,0,100,-0.599644954,1.451994212,50,0,2.051639167
755168650,gridcompare_block,gridcompare_trial,11,50,540,CFD-WM-003-N-crop.jpg,CFD-WM-205-N-crop.jpg,CFD-WM-017-N-crop.jpg,CFD-WM-206-N-crop.jpg,CFD-WM-002-N-crop.jpg,1.089101185,-0.501229435,-1.191197868,0.142995233,-0.693257943,0,100,-0.115082721,-0.693257943,38,0,0.578175221
755168650,gridcompare_block,gridcompare_trial,12,50,1108,CFD-WM-215-N-crop.jpg,CFD-WM-239-N-crop.jpg,CFD-WM-220-N-crop.jpg,CFD-WM-242-N-crop.jpg,CFD-WM-205-N-crop.jpg,-0.302870319,0.224680527,-2.151252165,-0.211913278,-0.501229435,0,100,-0.610338809,-0.501229435,50,1,0.109109373
755168650,gridcompare_block,gridcompare_trial,13,50,984,CFD-WM-001-N-crop.jpg,CFD-WM-202-N-crop.jpg,CFD-WM-026-N-crop.jpg,CFD-WM-220-N-crop.jpg,CFD-WM-253-N-crop.jpg,0.015929223,1.653125887,-0.104118604,-2.151252165,-0.164895482,0,100,-0.146578915,-0.164895482,38,0,0.018316567
755168650,gridcompare_block,gridcompare_trial,14,50,2722,CFD-WM-217-N-crop.jpg,CFD-WM-248-N-crop.jpg,CFD-WM-238-N-crop.jpg,CFD-WM-231-N-crop.jpg,CFD-WM-004-N-crop.jpg,-0.278521819,0.06235719,-0.619400824,0.195574272,1.036297207,0,100,-0.159997795,1.036297207,50,1,1.196295002
755168650,gridcompare_block,gridcompare_trial,15,38,428,CFD-WM-238-N-crop.jpg,CFD-WM-011-N-crop.jpg,CFD-WM-239-N-crop.jpg,CFD-WM-017-N-crop.jpg,CFD-WM-012-N-crop.jpg,-0.619400824,-0.451543737,0.224680527,-1.191197868,0.442813909,0,100,-0.509365476,0.442813909,50,0,0.952179385
755168650,gridcompare_block,gridcompare_trial,16,50,624,CFD-WM-034-N-crop.jpg,CFD-WM-224-N-crop.jpg,CFD-WM-015-N-crop.jpg,CFD-WM-236-N-crop.jpg,CFD-WM-214-N-crop.jpg,-0.078982888,-1.146951669,0.30810717,-0.619400824,1.507684178,0,100,-0.384307053,1.507684178,50,1,1.891991231
755168650,gridcompare_block,gridcompare_trial,17,50,1032,CFD-WM-227-N-crop.jpg,CFD-WM-010-N-crop.jpg,CFD-WM-247-N-crop.jpg,CFD-WM-217-N-crop.jpg,CFD-WM-228-N-crop.jpg,-0.3625065,-2.224990349,0.06235719,-0.278521819,-0.619400824,0,100,-0.70091537,-0.619400824,50,1,0.081514545
755168650,gridcompare_block,gridcompare_trial,18,38,487,CFD-WM-243-N-crop.jpg,CFD-WM-028-N-crop.jpg,CFD-WM-255-N-crop.jpg,CFD-WM-237-N-crop.jpg,CFD-WM-209-N-crop.jpg,-1.919286104,1.005455775,-0.93593133,-0.619400824,0.963251708,0,100,-0.617290621,0.963251708,50,0,1.580542329
755168650,gridcompare_block,gridcompare_trial,19,50,560,CFD-WM-241-N-crop.jpg,CFD-WM-010-N-crop.jpg,CFD-WM-018-N-crop.jpg,CFD-WM-230-N-crop.jpg,CFD-WM-234-N-crop.jpg,-0.291146966,-2.224990349,0.52948768,0.541211032,-1.026888371,0,100,-0.361359651,-1.026888371,38,0,0.665528721
755168650,gridcompare_block,gridcompare_trial,20,38,720,CFD-WM-230-N-crop.jpg,CFD-WM-038-N-crop.jpg,CFD-WM-026-N-crop.jpg,CFD-WM-204-N-crop.jpg,CFD-WM-028-N-crop.jpg,0.541211032,-0.718983455,-0.104118604,0.168408437,1.005455775,0,100,-0.028370647,1.005455775,50,0,1.033826422
755168650,gridcompare_block,gridcompare_trial,21,50,4624,CFD-WM-022-N-crop.jpg,CFD-WM-018-N-crop.jpg,CFD-WM-228-N-crop.jpg,CFD-WM-211-N-crop.jpg,CFD-WM-014-N-crop.jpg,-0.586936157,0.52948768,-0.619400824,-0.110041389,1.772163002,0,100,-0.196722673,1.772163002,50,1,1.968885675
755168650,gridcompare_block,gridcompare_trial,22,38,591,CFD-WM-227-N-crop.jpg,CFD-WM-219-N-crop.jpg,CFD-WM-010-N-crop.jpg,CFD-WM-004-N-crop.jpg,CFD-WM-024-N-crop.jpg,-0.3625065,0.119170357,-2.224990349,1.036297207,1.686382376,0,100,-0.358007321,1.686382376,50,0,2.044389697
755168650,gridcompare_block,gridcompare_trial,23,50,867,CFD-WM-212-N-crop.jpg,CFD-WM-006-N-crop.jpg,CFD-WM-238-N-crop.jpg,CFD-WM-241-N-crop.jpg,CFD-WM-024-N-crop.jpg,0.80303256,0.65162865,-0.619400824,-0.291146966,1.686382376,0,100,0.136028355,1.686382376,50,1,1.550354021
755168650,gridcompare_block,gridcompare_trial,24,50,622,CFD-WM-036-N-crop.jpg,CFD-WM-222-N-crop.jpg,CFD-WM-227-N-crop.jpg,CFD-WM-252-N-crop.jpg,CFD-WM-014-N-crop.jpg,-1.134683045,-1.332504033,-0.3625065,2.006630043,1.772163002,0,100,-0.205765884,1.772163002,50,1,1.977928886
755168650,gridcompare_block,gridcompare_trial,25,50,460,CFD-WM-225-N-crop.jpg,CFD-WM-019-N-crop.jpg,CFD-WM-245-N-crop.jpg,CFD-WM-009-N-crop.jpg,CFD-WM-006-N-crop.jpg,1.459540279,-1.518530958,-1.12876026,0.889853328,0.65162865,0,100,-0.074474402,0.65162865,50,1,0.726103052
755168650,gridcompare_block,gridcompare_trial,26,38,327,CFD-WM-258-N-crop.jpg,CFD-WM-006-N-crop.jpg,CFD-WM-254-N-crop.jpg,CFD-WM-223-N-crop.jpg,CFD-WM-212-N-crop.jpg,0.36536075,0.65162865,0.06235719,-0.619400824,0.80303256,0,100,0.114986441,0.80303256,50,0,0.688046119
755168650,gridcompare_block,gridcompare_trial,27,50,415,CFD-WM-213-N-crop.jpg,CFD-WM-245-N-crop.jpg,CFD-WM-002-N-crop.jpg,CFD-WM-039-N-crop.jpg,CFD-WM-251-N-crop.jpg,1.034998622,-1.12876026,-0.693257943,-0.549888242,0.562313066,0,100,-0.334226956,0.562313066,50,1,0.896540021
755168650,gridcompare_block,gridcompare_trial,28,50,331,CFD-WM-204-N-crop.jpg,CFD-WM-247-N-crop.jpg,CFD-WM-032-N-crop.jpg,CFD-WM-025-N-crop.jpg,CFD-WM-013-N-crop.jpg,0.168408437,0.06235719,1.044506665,0.824170122,-0.00106216,0,100,0.524860603,-0.00106216,38,0,0.525922763
755168650,gridcompare_block,gridcompare_trial,29,50,321,CFD-WM-217-N-crop.jpg,CFD-WM-208-N-crop.jpg,CFD-WM-215-N-crop.jpg,CFD-WM-037-N-crop.jpg,CFD-WM-214-N-crop.jpg,-0.278521819,1.112421257,-0.302870319,-0.250115234,1.507684178,0,100,0.070228472,1.507684178,50,1,1.437455706
755168650,gridcompare_block,gridcompare_trial,30,50,227,CFD-WM-257-N-crop.jpg,CFD-WM-225-N-crop.jpg,CFD-WM-238-N-crop.jpg,CFD-WM-039-N-crop.jpg,CFD-WM-229-N-crop.jpg,2.10763123,1.459540279,-0.619400824,-0.549888242,-0.742496022,0,100,0.599470611,-0.742496022,38,0,1.341966633
755168650,gridcompare_block,gridcompare_trial,31,38,2436,CFD-WM-258-N-crop.jpg,CFD-WM-243-N-crop.jpg,CFD-WM-256-N-crop.jpg,CFD-WM-020-N-crop.jpg,CFD-WM-016-N-crop.jpg,0.36536075,-1.919286104,-0.619400824,-0.417972321,-0.378935788,0,100,-0.647824625,-0.378935788,50,0,0.268888837
755168650,gridcompare_block,gridcompare_trial,32,50,2770,CFD-WM-203-N-crop.jpg,CFD-WM-211-N-crop.jpg,CFD-WM-202-N-crop.jpg,CFD-WM-001-N-crop.jpg,CFD-WM-241-N-crop.jpg,0.980836736,-0.110041389,1.653125887,0.015929223,-0.291146966,0,100,0.634962614,-0.291146966,38,0,0.92610958
755168650,gridcompare_block,gridcompare_trial,33,50,2066,CFD-WM-041-N-crop.jpg,CFD-WM-209-N-crop.jpg,CFD-WM-252-N-crop.jpg,CFD-WM-010-N-crop.jpg,CFD-WM-247-N-crop.jpg,-0.688913407,0.963251708,2.006630043,-2.224990349,0.06235719,0,100,0.013994499,0.06235719,50,1,0.048362691
755168650,gridcompare_block,gridcompare_trial,34,38,1917,CFD-WM-229-N-crop.jpg,CFD-WM-010-N-crop.jpg,CFD-WM-245-N-crop.jpg,CFD-WM-036-N-crop.jpg,CFD-WM-208-N-crop.jpg,-0.742496022,-2.224990349,-1.12876026,-1.134683045,1.112421257,0,100,-1.307732419,1.112421257,50,0,2.420153676
755168650,gridcompare_block,gridcompare_trial,35,38,4451,CFD-WM-258-N-crop.jpg,CFD-WM-013-N-crop.jpg,CFD-WM-012-N-crop.jpg,CFD-WM-213-N-crop.jpg,CFD-WM-234-N-crop.jpg,0.36536075,-0.00106216,0.442813909,1.034998622,-1.026888371,0,100,0.46052778,-1.026888371,38,1,1.487416151
755168650,gridcompare_block,gridcompare_trial,36,50,713,CFD-WM-227-N-crop.jpg,CFD-WM-245-N-crop.jpg,CFD-WM-235-N-crop.jpg,CFD-WM-255-N-crop.jpg,CFD-WM-017-N-crop.jpg,-0.3625065,-1.12876026,-1.885522851,-0.93593133,-1.191197868,0,100,-1.078180235,-1.191197868,38,0,0.113017633
755168650,gridcompare_block,gridcompare_trial,37,50,446,CFD-WM-227-N-crop.jpg,CFD-WM-233-N-crop.jpg,CFD-WM-201-N-crop.jpg,CFD-WM-025-N-crop.jpg,CFD-WM-221-N-crop.jpg,-0.3625065,-0.619400824,-0.234059337,0.824170122,1.021868469,0,100,-0.097949135,1.021868469,50,1,1.119817604
755168650,gridcompare_block,gridcompare_trial,38,50,692,CFD-WM-023-N-crop.jpg,CFD-WM-227-N-crop.jpg,CFD-WM-006-N-crop.jpg,CFD-WM-004-N-crop.jpg,CFD-WM-013-N-crop.jpg,1.776852341,-0.3625065,0.65162865,1.036297207,-0.00106216,0,100,0.775567925,-0.00106216,38,0,0.776630084
755168650,gridcompare_block,gridcompare_trial,39,50,632,CFD-WM-009-N-crop.jpg,CFD-WM-016-N-crop.jpg,CFD-WM-002-N-crop.jpg,CFD-WM-033-N-crop.jpg,CFD-WM-040-N-crop.jpg,0.889853328,-0.378935788,-0.693257943,1.101226542,0.619492771,0,100,0.229721535,0.619492771,50,1,0.389771236
755168650,gridcompare_block,gridcompare_trial,40,50,500,CFD-WM-239-N-crop.jpg,CFD-WM-229-N-crop.jpg,CFD-WM-001-N-crop.jpg,CFD-WM-041-N-crop.jpg,CFD-WM-248-N-crop.jpg,0.224680527,-0.742496022,0.015929223,-0.688913407,0.06235719,0,100,-0.29769992,0.06235719,50,1,0.36005711
755168650,gridcompare_block,gridcompare_trial,41,38,274,CFD-WM-245-N-crop.jpg,CFD-WM-249-N-crop.jpg,CFD-WM-254-N-crop.jpg,CFD-WM-244-N-crop.jpg,CFD-WM-216-N-crop.jpg,-1.12876026,-2.664674864,0.06235719,-0.947654682,-0.051269147,0,100,-1.169683154,-0.051269147,50,0,1.118414007
755168650,gridcompare_block,gridcompare_trial,42,50,276,CFD-WM-009-N-crop.jpg,CFD-WM-021-N-crop.jpg,CFD-WM-212-N-crop.jpg,CFD-WM-231-N-crop.jpg,CFD-WM-029-N-crop.jpg,0.889853328,-0.619400824,0.80303256,0.195574272,1.451994212,0,100,0.317264834,1.451994212,50,1,1.134729378
755168650,gridcompare_block,gridcompare_trial,43,50,302,CFD-WM-201-N-crop.jpg,CFD-WM-225-N-crop.jpg,CFD-WM-205-N-crop.jpg,CFD-WM-041-N-crop.jpg,CFD-WM-211-N-crop.jpg,-0.234059337,1.459540279,-0.501229435,-0.688913407,-0.110041389,0,100,0.008834525,-0.110041389,38,0,0.118875914
755168650,gridcompare_block,gridcompare_trial,44,38,223,CFD-WM-219-N-crop.jpg,CFD-WM-217-N-crop.jpg,CFD-WM-250-N-crop.jpg,CFD-WM-254-N-crop.jpg,CFD-WM-208-N-crop.jpg,0.119170357,-0.278521819,0.444141677,0.06235719,1.112421257,0,100,0.086786851,1.112421257,50,0,1.025634406
755168650,gridcompare_block,gridcompare_trial,45,38,413,CFD-WM-225-N-crop.jpg,CFD-WM-254-N-crop.jpg,CFD-WM-023-N-crop.jpg,CFD-WM-219-N-crop.jpg,CFD-WM-247-N-crop.jpg,1.459540279,0.06235719,1.776852341,0.119170357,0.06235719,0,100,0.854480042,0.06235719,38,1,0.792122852
755168650,gridcompare_block,gridcompare_trial,46,38,114,CFD-WM-217-N-crop.jpg,CFD-WM-016-N-crop.jpg,CFD-WM-212-N-crop.jpg,CFD-WM-028-N-crop.jpg,CFD-WM-219-N-crop.jpg,-0.278521819,-0.378935788,0.80303256,1.005455775,0.119170357,0,100,0.287757682,0.119170357,38,1,0.168587325
755168650,gridcompare_block,gridcompare_trial,47,50,256,CFD-WM-212-N-crop.jpg,CFD-WM-040-N-crop.jpg,CFD-WM-258-N-crop.jpg,CFD-WM-251-N-crop.jpg,CFD-WM-248-N-crop.jpg,0.80303256,0.619492771,0.36536075,0.562313066,0.06235719,0,100,0.587549787,0.06235719,38,0,0.525192597
755168650,gridcompare_block,gridcompare_trial,48,50,276,CFD-WM-206-N-crop.jpg,CFD-WM-204-N-crop.jpg,CFD-WM-223-N-crop.jpg,CFD-WM-022-N-crop.jpg,CFD-WM-014-N-crop.jpg,0.142995233,0.168408437,-0.619400824,-0.586936157,1.772163002,0,100,-0.223733328,1.772163002,50,1,1.99589633
755168650,gridcompare_block,gridcompare_trial,49,50,150,CFD-WM-037-N-crop.jpg,CFD-WM-219-N-crop.jpg,CFD-WM-253-N-crop.jpg,CFD-WM-224-N-crop.jpg,CFD-WM-240-N-crop.jpg,-0.250115234,0.119170357,-0.164895482,-1.146951669,0.857741538,0,100,-0.360698007,0.857741538,50,1,1.218439545
755168650,gridcompare_block,gridcompare_trial,50,50,205,CFD-WM-037-N-crop.jpg,CFD-WM-003-N-crop.jpg,CFD-WM-233-N-crop.jpg,CFD-WM-011-N-crop.jpg,CFD-WM-241-N-crop.jpg,-0.250115234,1.089101185,-0.619400824,-0.451543737,-0.291146966,0,100,-0.057989652,-0.291146966,38,0,0.233157314
755168650,gridcompare_block,gridcompare_trial,51,38,248,CFD-WM-003-N-crop.jpg,CFD-WM-041-N-crop.jpg,CFD-WM-035-N-crop.jpg,CFD-WM-207-N-crop.jpg,CFD-WM-238-N-crop.jpg,1.089101185,-0.688913407,-1.333623506,0.36536075,-0.619400824,0,100,-0.142018744,-0.619400824,38,1,0.47738208
755168650,gridcompare_block,gridcompare_trial,52,38,152,CFD-WM-200-N-crop.jpg,CFD-WM-016-N-crop.jpg,CFD-WM-026-N-crop.jpg,CFD-WM-003-N-crop.jpg,CFD-WM-234-N-crop.jpg,1.312246881,-0.378935788,-0.104118604,1.089101185,-1.026888371,0,100,0.479573419,-1.026888371,38,1,1.50646179
755168650,gridcompare_block,gridcompare_trial,53,50,217,CFD-WM-017-N-crop.jpg,CFD-WM-218-N-crop.jpg,CFD-WM-009-N-crop.jpg,CFD-WM-234-N-crop.jpg,CFD-WM-026-N-crop.jpg,-1.191197868,-0.302870319,0.889853328,-1.026888371,-0.104118604,0,100,-0.407775807,-0.104118604,50,1,0.303657204
755168650,gridcompare_block,gridcompare_trial,54,50,776,CFD-WM-020-N-crop.jpg,CFD-WM-227-N-crop.jpg,CFD-WM-029-N-crop.jpg,CFD-WM-235-N-crop.jpg,CFD-WM-012-N-crop.jpg,-0.417972321,-0.3625065,1.451994212,-1.885522851,0.442813909,0,100,-0.303501865,0.442813909,50,1,0.746315774
755168650,gridcompare_block,gridcompare_trial,55,50,207,CFD-WM-031-N-crop.jpg,CFD-WM-039-N-crop.jpg,CFD-WM-240-N-crop.jpg,CFD-WM-026-N-crop.jpg,CFD-WM-212-N-crop.jpg,0.53514723,-0.549888242,0.857741538,-0.104118604,0.80303256,0,100,0.184720481,0.80303256,50,1,0.61831208
755168650,gridcompare_block,gridcompare_trial,56,38,267,CFD-WM-034-N-crop.jpg,CFD-WM-205-N-crop.jpg,CFD-WM-227-N-crop.jpg,CFD-WM-219-N-crop.jpg,CFD-WM-247-N-crop.jpg,-0.078982888,-0.501229435,-0.3625065,0.119170357,0.06235719,0,100,-0.205887116,0.06235719,50,0,0.268244306
755168650,gridcompare_block,gridcompare_trial,57,50,314,CFD-WM-014-N-crop.jpg,CFD-WM-015-N-crop.jpg,CFD-WM-233-N-crop.jpg,CFD-WM-228-N-crop.jpg,CFD-WM-238-N-crop.jpg,1.772163002,0.30810717,-0.619400824,-0.619400824,-0.619400824,0,100,0.210367131,-0.619400824,38,0,0.829767955
755168650,gridcompare_block,gridcompare_trial,58,50,1121,CFD-WM-209-N-crop.jpg,CFD-WM-039-N-crop.jpg,CFD-WM-203-N-crop.jpg,CFD-WM-253-N-crop.jpg,CFD-WM-028-N-crop.jpg,0.963251708,-0.549888242,0.980836736,-0.164895482,1.005455775,0,100,0.30732618,1.005455775,50,1,0.698129594
755168650,gridcompare_block,gridcompare_trial,59,50,280,CFD-WM-236-N-crop.jpg,CFD-WM-211-N-crop.jpg,CFD-WM-010-N-crop.jpg,CFD-WM-041-N-crop.jpg,CFD-WM-222-N-crop.jpg,-0.619400824,-0.110041389,-2.224990349,-0.688913407,-1.332504033,0,100,-0.910836493,-1.332504033,38,0,0.42166754
755168650,gridcompare_block,gridcompare_trial,60,50,889,CFD-WM-208-N-crop.jpg,CFD-WM-001-N-crop.jpg,CFD-WM-235-N-crop.jpg,CFD-WM-236-N-crop.jpg,CFD-WM-018-N-crop.jpg,1.112421257,0.015929223,-1.885522851,-0.619400824,0.52948768,0,100,-0.344143299,0.52948768,50,1,0.873630979
755168650,gridcompare_block,gridcompare_trial,61,38,1422,CFD-WM-227-N-crop.jpg,CFD-WM-010-N-crop.jpg,CFD-WM-015-N-crop.jpg,CFD-WM-232-N-crop.jpg,CFD-WM-033-N-crop.jpg,-0.3625065,-2.224990349,0.30810717,-1.27590854,1.101226542,0,100,-0.888824555,1.101226542,50,0,1.990051097
755168650,gridcompare_block,gridcompare_trial,62,50,3456,CFD-WM-001-N-crop.jpg,CFD-WM-002-N-crop.jpg,CFD-WM-028-N-crop.jpg,CFD-WM-244-N-crop.jpg,CFD-WM-021-N-crop.jpg,0.015929223,-0.693257943,1.005455775,-0.947654682,-0.619400824,0,100,-0.154881907,-0.619400824,38,0,0.464518917
755168650,gridcompare_block,gridcompare_trial,63,50,6820,CFD-WM-026-N-crop.jpg,CFD-WM-255-N-crop.jpg,CFD-WM-239-N-crop.jpg,CFD-WM-036-N-crop.jpg,CFD-WM-014-N-crop.jpg,-0.104118604,-0.93593133,0.224680527,-1.134683045,1.772163002,0,100,-0.487513113,1.772163002,50,1,2.259676115
755168650,gridcompare_block,gridcompare_trial,64,50,870,CFD-WM-218-N-crop.jpg,CFD-WM-242-N-crop.jpg,CFD-WM-224-N-crop.jpg,CFD-WM-239-N-crop.jpg,CFD-WM-021-N-crop.jpg,-0.302870319,-0.211913278,-1.146951669,0.224680527,-0.619400824,0,100,-0.359263685,-0.619400824,38,0,0.26013714
755168650,gridcompare_block,gridcompare_trial,65,50,802,CFD-WM-234-N-crop.jpg,CFD-WM-029-N-crop.jpg,CFD-WM-014-N-crop.jpg,CFD-WM-036-N-crop.jpg,CFD-WM-009-N-crop.jpg,-1.026888371,1.451994212,1.772163002,-1.134683045,0.889853328,0,100,0.26564645,0.889853328,50,1,0.624206879
755168650,gridcompare_block,gridcompare_trial,66,38,432,CFD-WM-237-N-crop.jpg,CFD-WM-013-N-crop.jpg,CFD-WM-230-N-crop.jpg,CFD-WM-029-N-crop.jpg,CFD-WM-024-N-crop.jpg,-0.619400824,-0.00106216,0.541211032,1.451994212,1.686382376,0,100,0.343185565,1.686382376,50,0,1.343196811
755168650,gridcompare_block,gridcompare_trial,67,38,313,CFD-WM-200-N-crop.jpg,CFD-WM-240-N-crop.jpg,CFD-WM-004-N-crop.jpg,CFD-WM-257-N-crop.jpg,CFD-WM-217-N-crop.jpg,1.312246881,0.857741538,1.036297207,2.10763123,-0.278521819,0,100,1.328479214,-0.278521819,38,1,1.607001033
755168650,gridcompare_block,gridcompare_trial,68,50,2004,CFD-WM-249-N-crop.jpg,CFD-WM-248-N-crop.jpg,CFD-WM-214-N-crop.jpg,CFD-WM-233-N-crop.jpg,CFD-WM-239-N-crop.jpg,-2.664674864,0.06235719,1.507684178,-0.619400824,0.224680527,0,100,-0.42850858,0.224680527,50,1,0.653189107
755168650,gridcompare_block,gridcompare_trial,69,50,4494,CFD-WM-217-N-crop.jpg,CFD-WM-021-N-crop.jpg,CFD-WM-230-N-crop.jpg,CFD-WM-225-N-crop.jpg,CFD-WM-250-N-crop.jpg,-0.278521819,-0.619400824,0.541211032,1.459540279,0.444141677,0,100,0.275707167,0.444141677,50,1,0.16843451
755168650,gridcompare_block,gridcompare_trial,70,38,6271,CFD-WM-003-N-crop.jpg,CFD-WM-029-N-crop.jpg,CFD-WM-025-N-crop.jpg,CFD-WM-256-N-crop.jpg,CFD-WM-224-N-crop.jpg,1.089101185,1.451994212,0.824170122,-0.619400824,-1.146951669,0,100,0.686466174,-1.146951669,38,1,1.833417843
755168650,gridcompare_block,gridcompare_trial,71,50,359,CFD-WM-225-N-crop.jpg,CFD-WM-018-N-crop.jpg,CFD-WM-024-N-crop.jpg,CFD-WM-254-N-crop.jpg,CFD-WM-010-N-crop.jpg,1.459540279,0.52948768,1.686382376,0.06235719,-2.224990349,0,100,0.934441881,-2.224990349,38,0,3.159432231
755168650,gridcompare_block,gridcompare_trial,72,50,1742,CFD-WM-036-N-crop.jpg,CFD-WM-222-N-crop.jpg,CFD-WM-200-N-crop.jpg,CFD-WM-225-N-crop.jpg,CFD-WM-239-N-crop.jpg,-1.134683045,-1.332504033,1.312246881,1.459540279,0.224680527,0,100,0.076150021,0.224680527,50,1,0.148530506
755168650,gridcompare_block,gridcompare_trial,73,38,812,CFD-WM-206-N-crop.jpg,CFD-WM-202-N-crop.jpg,CFD-WM-258-N-crop.jpg,CFD-WM-018-N-crop.jpg,CFD-WM-242-N-crop.jpg,0.142995233,1.653125887,0.36536075,0.52948768,-0.211913278,0,100,0.672742387,-0.211913278,38,1,0.884655665
755168650,gridcompare_block,gridcompare_trial,74,50,3772,CFD-WM-036-N-crop.jpg,CFD-WM-211-N-crop.jpg,CFD-WM-229-N-crop.jpg,CFD-WM-022-N-crop.jpg,CFD-WM-023-N-crop.jpg,-1.134683045,-0.110041389,-0.742496022,-0.586936157,1.776852341,0,100,-0.643539153,1.776852341,50,1,2.420391495
755168650,gridcompare_block,gridcompare_trial,75,50,2270,CFD-WM-204-N-crop.jpg,CFD-WM-034-N-crop.jpg,CFD-WM-202-N-crop.jpg,CFD-WM-243-N-crop.jpg,CFD-WM-205-N-crop.jpg,0.168408437,-0.078982888,1.653125887,-1.919286104,-0.501229435,0,100,-0.044183667,-0.501229435,38,0,0.457045768
755168650,gridcompare_block,gridcompare_trial,76,50,3562,CFD-WM-242-N-crop.jpg,CFD-WM-204-N-crop.jpg,CFD-WM-232-N-crop.jpg,CFD-WM-208-N-crop.jpg,CFD-WM-228-N-crop.jpg,-0.211913278,0.168408437,-1.27590854,1.112421257,-0.619400824,0,100,-0.051748031,-0.619400824,38,0,0.567652793
755168650,gridcompare_block,gridcompare_trial,77,50,209,CFD-WM-248-N-crop.jpg,CFD-WM-222-N-crop.jpg,CFD-WM-036-N-crop.jpg,CFD-WM-037-N-crop.jpg,CFD-WM-001-N-crop.jpg,0.06235719,-1.332504033,-1.134683045,-0.250115234,0.015929223,0,100,-0.66373628,0.015929223,50,1,0.679665503
755168650,gridcompare_block,gridcompare_trial,78,50,241,CFD-WM-028-N-crop.jpg,CFD-WM-021-N-crop.jpg,CFD-WM-245-N-crop.jpg,CFD-WM-213-N-crop.jpg,CFD-WM-210-N-crop.jpg,1.005455775,-0.619400824,-1.12876026,1.034998622,0.330190693,0,100,0.073073328,0.330190693,50,1,0.257117365
755168650,gridcompare_block,gridcompare_trial,79,50,435,CFD-WM-017-N-crop.jpg,CFD-WM-026-N-crop.jpg,CFD-WM-041-N-crop.jpg,CFD-WM-229-N-crop.jpg,CFD-WM-245-N-crop.jpg,-1.191197868,-0.104118604,-0.688913407,-0.742496022,-1.12876026,0,100,-0.681681475,-1.12876026,38,0,0.447078784
755168650,gridcompare_block,gridcompare_trial,80,50,1382,CFD-WM-229-N-crop.jpg,CFD-WM-003-N-crop.jpg,CFD-WM-035-N-crop.jpg,CFD-WM-213-N-crop.jpg,CFD-WM-211-N-crop.jpg,-0.742496022,1.089101185,-1.333623506,1.034998622,-0.110041389,0,100,0.01199507,-0.110041389,38,0,0.122036459
755168650,gridcompare_block,gridcompare_trial,81,38,334,CFD-WM-227-N-crop.jpg,CFD-WM-238-N-crop.jpg,CFD-WM-002-N-crop.jpg,CFD-WM-245-N-crop.jpg,CFD-WM-021-N-crop.jpg,-0.3625065,-0.619400824,-0.693257943,-1.12876026,-0.619400824,0,100,-0.700981382,-0.619400824,50,0,0.081580557
755168650,gridcompare_block,gridcompare_trial,82,38,280,CFD-WM-028-N-crop.jpg,CFD-WM-235-N-crop.jpg,CFD-WM-213-N-crop.jpg,CFD-WM-006-N-crop.jpg,CFD-WM-013-N-crop.jpg,1.005455775,-1.885522851,1.034998622,0.65162865,-0.00106216,0,100,0.201640049,-0.00106216,38,1,0.202702209
755168650,gridcompare_block,gridcompare_trial,83,50,2406,CFD-WM-237-N-crop.jpg,CFD-WM-016-N-crop.jpg,CFD-WM-034-N-crop.jpg,CFD-WM-255-N-crop.jpg,CFD-WM-201-N-crop.jpg,-0.619400824,-0.378935788,-0.078982888,-0.93593133,-0.234059337,0,100,-0.503312708,-0.234059337,50,1,0.26925337
755168650,gridcompare_block,gridcompare_trial,84,38,1148,CFD-WM-223-N-crop.jpg,CFD-WM-200-N-crop.jpg,CFD-WM-010-N-crop.jpg,CFD-WM-212-N-crop.jpg,CFD-WM-006-N-crop.jpg,-0.619400824,1.312246881,-2.224990349,0.80303256,0.65162865,0,100,-0.182277933,0.65162865,50,0,0.833906583
755168650,gridcompare_block,gridcompare_trial,85,38,129,CFD-WM-035-N-crop.jpg,CFD-WM-245-N-crop.jpg,CFD-WM-252-N-crop.jpg,CFD-WM-253-N-crop.jpg,CFD-WM-032-N-crop.jpg,-1.333623506,-1.12876026,2.006630043,-0.164895482,1.044506665,0,100,-0.155162301,1.044506665,50,0,1.199668966
755168650,gridcompare_block,gridcompare_trial,86,50,338,CFD-WM-233-N-crop.jpg,CFD-WM-019-N-crop.jpg,CFD-WM-020-N-crop.jpg,CFD-WM-254-N-crop.jpg,CFD-WM-035-N-crop.jpg,-0.619400824,-1.518530958,-0.417972321,0.06235719,-1.333623506,0,100,-0.623386728,-1.333623506,38,0,0.710236778
755168650,gridcompare_block,gridcompare_trial,87,50,245,CFD-WM-010-N-crop.jpg,CFD-WM-026-N-crop.jpg,CFD-WM-225-N-crop.jpg,CFD-WM-214-N-crop.jpg,CFD-WM-014-N-crop.jpg,-2.224990349,-0.104118604,1.459540279,1.507684178,1.772163002,0,100,0.159528876,1.772163002,50,1,1.612634126
755168650,gridcompare_block,gridcompare_trial,88,50,732,CFD-WM-202-N-crop.jpg,CFD-WM-254-N-crop.jpg,CFD-WM-215-N-crop.jpg,CFD-WM-258-N-crop.jpg,CFD-WM-218-N-crop.jpg,1.653125887,0.06235719,-0.302870319,0.36536075,-0.302870319,0,100,0.444493377,-0.302870319,38,0,0.747363695
755168650,gridcompare_block,gridcompare_trial,89,50,415,CFD-WM-228-N-crop.jpg,CFD-WM-247-N-crop.jpg,CFD-WM-001-N-crop.jpg,CFD-WM-239-N-crop.jpg,CFD-WM-229-N-crop.jpg,-0.619400824,0.06235719,0.015929223,0.224680527,-0.742496022,0,100,-0.079108471,-0.742496022,38,0,0.663387551
755168650,gridcompare_block,gridcompare_trial,90,50,119,CFD-WM-252-N-crop.jpg,CFD-WM-244-N-crop.jpg,CFD-WM-220-N-crop.jpg,CFD-WM-037-N-crop.jpg,CFD-WM-039-N-crop.jpg,2.006630043,-0.947654682,-2.151252165,-0.250115234,-0.549888242,0,100,-0.33559801,-0.549888242,38,0,0.214290232
755168650,gridcompare_block,gridcompare_trial,91,38,31,CFD-WM-233-N-crop.jpg,CFD-WM-009-N-crop.jpg,CFD-WM-024-N-crop.jpg,CFD-WM-216-N-crop.jpg,CFD-WM-207-N-crop.jpg,-0.619400824,0.889853328,1.686382376,-0.051269147,0.36536075,0,100,0.476391433,0.36536075,38,1,0.111030683
755168650,gridcompare_block,gridcompare_trial,92,50,99,CFD-WM-227-N-crop.jpg,CFD-WM-013-N-crop.jpg,CFD-WM-211-N-crop.jpg,CFD-WM-231-N-crop.jpg,CFD-WM-243-N-crop.jpg,-0.3625065,-0.00106216,-0.110041389,0.195574272,-1.919286104,0,100,-0.069508944,-1.919286104,38,0,1.849777159
755168650,gridcompare_block,gridcompare_trial,93,50,118,CFD-WM-220-N-crop.jpg,CFD-WM-026-N-crop.jpg,CFD-WM-256-N-crop.jpg,CFD-WM-216-N-crop.jpg,CFD-WM-036-N-crop.jpg,-2.151252165,-0.104118604,-0.619400824,-0.051269147,-1.134683045,0,100,-0.731510185,-1.134683045,38,0,0.40317286
189809649,main_instructions,main_instructions1,1,57,9129,0,0,0,0,0,999,999,999,999,999,999,100,999,999,NA,NA,0
189809649,main_instructions,main_instructions2,2,57,2011,0,0,0,0,0,999,999,999,999,999,999,100,999,999,NA,NA,0
189809649,main_instructions,main_instructions3,3,57,697,0,0,0,0,0,999,999,999,999,999,999,100,999,999,NA,NA,0
189809649,gridcompare_block,gridcompare_trial,1,38,2517,CFD-WM-221-N-crop.jpg,CFD-WM-207-N-crop.jpg,CFD-WM-014-N-crop.jpg,CFD-WM-210-N-crop.jpg,CFD-WM-002-N-crop.jpg,1.021868469,0.36536075,1.772163002,0.330190693,-0.693257943,0,100,0.872395728,-0.693257943,38,1,1.565653671
189809649,gridcompare_block,gridcompare_trial,2,50,1432,CFD-WM-250-N-crop.jpg,CFD-WM-205-N-crop.jpg,CFD-WM-034-N-crop.jpg,CFD-WM-004-N-crop.jpg,CFD-WM-014-N-crop.jpg,0.444141677,-0.501229435,-0.078982888,1.036297207,1.772163002,0,100,0.22505664,1.772163002,50,1,1.547106362
189809649,gridcompare_block,gridcompare_trial,3,38,1348,CFD-WM-203-N-crop.jpg,CFD-WM-015-N-crop.jpg,CFD-WM-040-N-crop.jpg,CFD-WM-210-N-crop.jpg,CFD-WM-243-N-crop.jpg,0.980836736,0.30810717,0.619492771,0.330190693,-1.919286104,0,100,0.559656842,-1.919286104,38,1,2.478942946
189809649,gridcompare_block,gridcompare_trial,4,38,1245,CFD-WM-243-N-crop.jpg,CFD-WM-018-N-crop.jpg,CFD-WM-016-N-crop.jpg,CFD-WM-028-N-crop.jpg,CFD-WM-010-N-crop.jpg,-1.919286104,0.52948768,-0.378935788,1.005455775,-2.224990349,0,100,-0.190819609,-2.224990349,38,1,2.03417074
189809649,gridcompare_block,gridcompare_trial,5,38,1191,CFD-WM-221-N-crop.jpg,CFD-WM-227-N-crop.jpg,CFD-WM-208-N-crop.jpg,CFD-WM-203-N-crop.jpg,CFD-WM-002-N-crop.jpg,1.021868469,-0.3625065,1.112421257,0.980836736,-0.693257943,0,100,0.688154991,-0.693257943,38,1,1.381412933
189809649,gridcompare_block,gridcompare_trial,6,50,999,CFD-WM-032-N-crop.jpg,CFD-WM-212-N-crop.jpg,CFD-WM-022-N-crop.jpg,CFD-WM-224-N-crop.jpg,CFD-WM-244-N-crop.jpg,1.044506665,0.80303256,-0.586936157,-1.146951669,-0.947654682,0,100,0.02841285,-0.947654682,38,0,0.976067532
189809649,gridcompare_block,gridcompare_trial,7,50,1239,CFD-WM-010-N-crop.jpg,CFD-WM-202-N-crop.jpg,CFD-WM-236-N-crop.jpg,CFD-WM-024-N-crop.jpg,CFD-WM-020-N-crop.jpg,-2.224990349,1.653125887,-0.619400824,1.686382376,-0.417972321,0,100,0.123779272,-0.417972321,38,0,0.541751593
189809649,gridcompare_block,gridcompare_trial,8,38,2522,CFD-WM-217-N-crop.jpg,CFD-WM-244-N-crop.jpg,CFD-WM-018-N-crop.jpg,CFD-WM-033-N-crop.jpg,CFD-WM-229-N-crop.jpg,-0.278521819,-0.947654682,0.52948768,1.101226542,-0.742496022,0,100,0.10113443,-0.742496022,38,1,0.843630452
189809649,gridcompare_block,gridcompare_trial,9,50,1104,CFD-WM-227-N-crop.jpg,CFD-WM-002-N-crop.jpg,CFD-WM-215-N-crop.jpg,CFD-WM-223-N-crop.jpg,CFD-WM-018-N-crop.jpg,-0.3625065,-0.693257943,-0.302870319,-0.619400824,0.52948768,0,100,-0.494508896,0.52948768,50,1,1.023996577
189809649,gridcompare_block,gridcompare_trial,10,50,1203,CFD-WM-016-N-crop.jpg,CFD-WM-034-N-crop.jpg,CFD-WM-036-N-crop.jpg,CFD-WM-210-N-crop.jpg,CFD-WM-236-N-crop.jpg,-0.378935788,-0.078982888,-1.134683045,0.330190693,-0.619400824,0,100,-0.315602757,-0.619400824,38,0,0.303798068
189809649,gridcompare_block,gridcompare_trial,11,38,1061,CFD-WM-219-N-crop.jpg,CFD-WM-018-N-crop.jpg,CFD-WM-006-N-crop.jpg,CFD-WM-235-N-crop.jpg,CFD-WM-015-N-crop.jpg,0.119170357,0.52948768,0.65162865,-1.885522851,0.30810717,0,100,-0.146309041,0.30810717,50,0,0.454416211
189809649,gridcompare_block,gridcompare_trial,12,50,1109,CFD-WM-257-N-crop.jpg,CFD-WM-247-N-crop.jpg,CFD-WM-244-N-crop.jpg,CFD-WM-010-N-crop.jpg,CFD-WM-227-N-crop.jpg,2.10763123,0.06235719,-0.947654682,-2.224990349,-0.3625065,0,100,-0.250664153,-0.3625065,38,0,0.111842347
189809649,gridcompare_block,gridcompare_trial,13,50,1025,CFD-WM-222-N-crop.jpg,CFD-WM-237-N-crop.jpg,CFD-WM-040-N-crop.jpg,CFD-WM-215-N-crop.jpg,CFD-WM-018-N-crop.jpg,-1.332504033,-0.619400824,0.619492771,-0.302870319,0.52948768,0,100,-0.408820601,0.52948768,50,1,0.938308281
189809649,gridcompare_block,gridcompare_trial,14,38,1469,CFD-WM-250-N-crop.jpg,CFD-WM-219-N-crop.jpg,CFD-WM-236-N-crop.jpg,CFD-WM-221-N-crop.jpg,CFD-WM-243-N-crop.jpg,0.444141677,0.119170357,-0.619400824,1.021868469,-1.919286104,0,100,0.241444919,-1.919286104,38,1,2.160731023
189809649,gridcompare_block,gridcompare_trial,15,50,1496,CFD-WM-014-N-crop.jpg,CFD-WM-220-N-crop.jpg,CFD-WM-243-N-crop.jpg,CFD-WM-210-N-crop.jpg,CFD-WM-040-N-crop.jpg,1.772163002,-2.151252165,-1.919286104,0.330190693,0.619492771,0,100,-0.492046143,0.619492771,50,1,1.111538914
189809649,gridcompare_block,gridcompare_trial,16,38,883,CFD-WM-203-N-crop.jpg,CFD-WM-031-N-crop.jpg,CFD-WM-018-N-crop.jpg,CFD-WM-218-N-crop.jpg,CFD-WM-238-N-crop.jpg,0.980836736,0.53514723,0.52948768,-0.302870319,-0.619400824,0,100,0.435650332,-0.619400824,38,1,1.055051156
189809649,gridcompare_block,gridcompare_trial,17,50,948,CFD-WM-253-N-crop.jpg,CFD-WM-222-N-crop.jpg,CFD-WM-257-N-crop.jpg,CFD-WM-010-N-crop.jpg,CFD-WM-255-N-crop.jpg,-0.164895482,-1.332504033,2.10763123,-2.224990349,-0.93593133,0,100,-0.403689659,-0.93593133,38,0,0.532241672
189809649,gridcompare_block,gridcompare_trial,18,50,916,CFD-WM-252-N-crop.jpg,CFD-WM-231-N-crop.jpg,CFD-WM-249-N-crop.jpg,CFD-WM-004-N-crop.jpg,CFD-WM-211-N-crop.jpg,2.006630043,0.195574272,-2.664674864,1.036297207,-0.110041389,0,100,0.143456665,-0.110041389,38,0,0.253498054
189809649,gridcompare_block,gridcompare_trial,19,38,1006,CFD-WM-212-N-crop.jpg,CFD-WM-257-N-crop.jpg,CFD-WM-039-N-crop.jpg,CFD-WM-232-N-crop.jpg,CFD-WM-203-N-crop.jpg,0.80303256,2.10763123,-0.549888242,-1.27590854,0.980836736,0,100,0.271216752,0.980836736,50,0,0.709619984
189809649,gridcompare_block,gridcompare_trial,20,50,875,CFD-WM-242-N-crop.jpg,CFD-WM-024-N-crop.jpg,CFD-WM-016-N-crop.jpg,CFD-WM-032-N-crop.jpg,CFD-WM-222-N-crop.jpg,-0.211913278,1.686382376,-0.378935788,1.044506665,-1.332504033,0,100,0.535009994,-1.332504033,38,0,1.867514027
189809649,gridcompare_block,gridcompare_trial,21,50,1444,CFD-WM-255-N-crop.jpg,CFD-WM-256-N-crop.jpg,CFD-WM-235-N-crop.jpg,CFD-WM-039-N-crop.jpg,CFD-WM-011-N-crop.jpg,-0.93593133,-0.619400824,-1.885522851,-0.549888242,-0.451543737,0,100,-0.997685812,-0.451543737,50,1,0.546142075
189809649,gridcompare_block,gridcompare_trial,22,50,1061,CFD-WM-239-N-crop.jpg,CFD-WM-216-N-crop.jpg,CFD-WM-011-N-crop.jpg,CFD-WM-040-N-crop.jpg,CFD-WM-025-N-crop.jpg,0.224680527,-0.051269147,-0.451543737,0.619492771,0.824170122,0,100,0.085340103,0.824170122,50,1,0.738830019
189809649,gridcompare_block,gridcompare_trial,23,38,1056,CFD-WM-035-N-crop.jpg,CFD-WM-229-N-crop.jpg,CFD-WM-202-N-crop.jpg,CFD-WM-230-N-crop.jpg,CFD-WM-041-N-crop.jpg,-1.333623506,-0.742496022,1.653125887,0.541211032,-0.688913407,0,100,0.029554348,-0.688913407,38,1,0.718467755
189809649,gridcompare_block,gridcompare_trial,24,38,952,CFD-WM-237-N-crop.jpg,CFD-WM-002-N-crop.jpg,CFD-WM-017-N-crop.jpg,CFD-WM-224-N-crop.jpg,CFD-WM-026-N-crop.jpg,-0.619400824,-0.693257943,-1.191197868,-1.146951669,-0.104118604,0,100,-0.912702076,-0.104118604,50,0,0.808583472
189809649,gridcompare_block,gridcompare_trial,25,50,1252,CFD-WM-235-N-crop.jpg,CFD-WM-026-N-crop.jpg,CFD-WM-236-N-crop.jpg,CFD-WM-227-N-crop.jpg,CFD-WM-017-N-crop.jpg,-1.885522851,-0.104118604,-0.619400824,-0.3625065,-1.191197868,0,100,-0.742887195,-1.191197868,38,0,0.448310673
189809649,gridcompare_block,gridcompare_trial,26,50,797,CFD-WM-248-N-crop.jpg,CFD-WM-229-N-crop.jpg,CFD-WM-237-N-crop.jpg,CFD-WM-014-N-crop.jpg,CFD-WM-024-N-crop.jpg,0.06235719,-0.742496022,-0.619400824,1.772163002,1.686382376,0,100,0.118155836,1.686382376,50,1,1.56822654
189809649,gridcompare_block,gridcompare_trial,27,38,1152,CFD-WM-018-N-crop.jpg,CFD-WM-236-N-crop.jpg,CFD-WM-012-N-crop.jpg,CFD-WM-231-N-crop.jpg,CFD-WM-228-N-crop.jpg,0.52948768,-0.619400824,0.442813909,0.195574272,-0.619400824,0,100,0.137118759,-0.619400824,38,1,0.756519584
189809649,gridcompare_block,gridcompare_trial,28,38,1261,CFD-WM-024-N-crop.jpg,CFD-WM-238-N-crop.jpg,CFD-WM-040-N-crop.jpg,CFD-WM-032-N-crop.jpg,CFD-WM-017-N-crop.jpg,1.686382376,-0.619400824,0.619492771,1.044506665,-1.191197868,0,100,0.682745247,-1.191197868,38,1,1.873943115
189809649,gridcompare_block,gridcompare_trial,29,50,936,CFD-WM-237-N-crop.jpg,CFD-WM-249-N-crop.jpg,CFD-WM-242-N-crop.jpg,CFD-WM-216-N-crop.jpg,CFD-WM-257-N-crop.jpg,-0.619400824,-2.664674864,-0.211913278,-0.051269147,2.10763123,0,100,-0.886814528,2.10763123,50,1,2.994445758
189809649,gridcompare_block,gridcompare_trial,30,38,1031,CFD-WM-019-N-crop.jpg,CFD-WM-003-N-crop.jpg,CFD-WM-248-N-crop.jpg,CFD-WM-234-N-crop.jpg,CFD-WM-038-N-crop.jpg,-1.518530958,1.089101185,0.06235719,-1.026888371,-0.718983455,0,100,-0.348490239,-0.718983455,38,1,0.370493217
189809649,gridcompare_block,gridcompare_trial,31,50,904,CFD-WM-219-N-crop.jpg,CFD-WM-245-N-crop.jpg,CFD-WM-212-N-crop.jpg,CFD-WM-251-N-crop.jpg,CFD-WM-207-N-crop.jpg,0.119170357,-1.12876026,0.80303256,0.562313066,0.36536075,0,100,0.088938931,0.36536075,50,1,0.276421819
189809649,gridcompare_block,gridcompare_trial,32,38,1391,CFD-WM-039-N-crop.jpg,CFD-WM-031-N-crop.jpg,CFD-WM-258-N-crop.jpg,CFD-WM-221-N-crop.jpg,CFD-WM-243-N-crop.jpg,-0.549888242,0.53514723,0.36536075,1.021868469,-1.919286104,0,100,0.343122052,-1.919286104,38,1,2.262408155
189809649,gridcompare_block,gridcompare_trial,33,50,696,CFD-WM-001-N-crop.jpg,CFD-WM-223-N-crop.jpg,CFD-WM-215-N-crop.jpg,CFD-WM-220-N-crop.jpg,CFD-WM-036-N-crop.jpg,0.015929223,-0.619400824,-0.302870319,-2.151252165,-1.134683045,0,100,-0.764398521,-1.134683045,38,0,0.370284524
189809649,gridcompare_block,gridcompare_trial,34,50,625,CFD-WM-011-N-crop.jpg,CFD-WM-257-N-crop.jpg,CFD-WM-040-N-crop.jpg,CFD-WM-031-N-crop.jpg,CFD-WM-200-N-crop.jpg,-0.451543737,2.10763123,0.619492771,0.53514723,1.312246881,0,100,0.702681873,1.312246881,50,1,0.609565008
189809649,gridcompare_block,gridcompare_trial,35,50,744,CFD-WM-211-N-crop.jpg,CFD-WM-039-N-crop.jpg,CFD-WM-024-N-crop.jpg,CFD-WM-249-N-crop.jpg,CFD-WM-244-N-crop.jpg,-0.110041389,-0.549888242,1.686382376,-2.664674864,-0.947654682,0,100,-0.40955553,-0.947654682,38,0,0.538099153
189809649,gridcompare_block,gridcompare_trial,36,50,952,CFD-WM-204-N-crop.jpg,CFD-WM-232-N-crop.jpg,CFD-WM-228-N-crop.jpg,CFD-WM-021-N-crop.jpg,CFD-WM-006-N-crop.jpg,0.168408437,-1.27590854,-0.619400824,-0.619400824,0.65162865,0,100,-0.586575438,0.65162865,50,1,1.238204088
189809649,gridcompare_block,gridcompare_trial,37,38,1343,CFD-WM-017-N-crop.jpg,CFD-WM-041-N-crop.jpg,CFD-WM-248-N-crop.jpg,CFD-WM-013-N-crop.jpg,CFD-WM-023-N-crop.jpg,-1.191197868,-0.688913407,0.06235719,-0.00106216,1.776852341,0,100,-0.454704061,1.776852341,50,0,2.231556402
189809649,gridcompare_block,gridcompare_trial,38,50,720,CFD-WM-222-N-crop.jpg,CFD-WM-218-N-crop.jpg,CFD-WM-241-N-crop.jpg,CFD-WM-210-N-crop.jpg,CFD-WM-227-N-crop.jpg,-1.332504033,-0.302870319,-0.291146966,0.330190693,-0.3625065,0,100,-0.399082656,-0.3625065,50,1,0.036576156
189809649,gridcompare_block,gridcompare_trial,39,50,953,CFD-WM-254-N-crop.jpg,CFD-WM-244-N-crop.jpg,CFD-WM-025-N-crop.jpg,CFD-WM-004-N-crop.jpg,CFD-WM-038-N-crop.jpg,0.06235719,-0.947654682,0.824170122,1.036297207,-0.718983455,0,100,0.243792459,-0.718983455,38,0,0.962775914
189809649,gridcompare_block,gridcompare_trial,40,50,1807,CFD-WM-208-N-crop.jpg,CFD-WM-237-N-crop.jpg,CFD-WM-220-N-crop.jpg,CFD-WM-236-N-crop.jpg,CFD-WM-037-N-crop.jpg,1.112421257,-0.619400824,-2.151252165,-0.619400824,-0.250115234,0,100,-0.569408139,-0.250115234,50,1,0.319292905
189809649,gridcompare_block,gridcompare_trial,41,38,4553,CFD-WM-240-N-crop.jpg,CFD-WM-251-N-crop.jpg,CFD-WM-211-N-crop.jpg,CFD-WM-206-N-crop.jpg,CFD-WM-220-N-crop.jpg,0.857741538,0.562313066,-0.110041389,0.142995233,-2.151252165,0,100,0.363252112,-2.151252165,38,1,2.514504277
189809649,gridcompare_block,gridcompare_trial,42,50,1001,CFD-WM-209-N-crop.jpg,CFD-WM-013-N-crop.jpg,CFD-WM-031-N-crop.jpg,CFD-WM-214-N-crop.jpg,CFD-WM-252-N-crop.jpg,0.963251708,-0.00106216,0.53514723,1.507684178,2.006630043,0,100,0.751255239,2.006630043,50,1,1.255374804
189809649,gridcompare_block,gridcompare_trial,43,38,997,CFD-WM-221-N-crop.jpg,CFD-WM-207-N-crop.jpg,CFD-WM-034-N-crop.jpg,CFD-WM-219-N-crop.jpg,CFD-WM-026-N-crop.jpg,1.021868469,0.36536075,-0.078982888,0.119170357,-0.104118604,0,100,0.356854172,-0.104118604,38,1,0.460972776
189809649,gridcompare_block,gridcompare_trial,44,50,858,CFD-WM-222-N-crop.jpg,CFD-WM-200-N-crop.jpg,CFD-WM-225-N-crop.jpg,CFD-WM-218-N-crop.jpg,CFD-WM-208-N-crop.jpg,-1.332504033,1.312246881,1.459540279,-0.302870319,1.112421257,0,100,0.284103202,1.112421257,50,1,0.828318055
189809649,gridcompare_block,gridcompare_trial,45,38,2401,CFD-WM-017-N-crop.jpg,CFD-WM-250-N-crop.jpg,CFD-WM-024-N-crop.jpg,CFD-WM-249-N-crop.jpg,CFD-WM-234-N-crop.jpg,-1.191197868,0.444141677,1.686382376,-2.664674864,-1.026888371,0,100,-0.43133717,-1.026888371,38,1,0.595551202
189809649,gridcompare_block,gridcompare_trial,46,38,2521,CFD-WM-009-N-crop.jpg,CFD-WM-203-N-crop.jpg,CFD-WM-251-N-crop.jpg,CFD-WM-221-N-crop.jpg,CFD-WM-228-N-crop.jpg,0.889853328,0.980836736,0.562313066,1.021868469,-0.619400824,0,100,0.8637179,-0.619400824,38,1,1.483118724
189809649,gridcompare_block,gridcompare_trial,47,50,998,CFD-WM-235-N-crop.jpg,CFD-WM-026-N-crop.jpg,CFD-WM-034-N-crop.jpg,CFD-WM-256-N-crop.jpg,CFD-WM-021-N-crop.jpg,-1.885522851,-0.104118604,-0.078982888,-0.619400824,-0.619400824,0,100,-0.672006292,-0.619400824,50,1,0.052605467
189809649,gridcompare_block,gridcompare_trial,48,50,925,CFD-WM-032-N-crop.jpg,CFD-WM-029-N-crop.jpg,CFD-WM-019-N-crop.jpg,CFD-WM-219-N-crop.jpg,CFD-WM-041-N-crop.jpg,1.044506665,1.451994212,-1.518530958,0.119170357,-0.688913407,0,100,0.274285069,-0.688913407,38,0,0.963198476
189809649,gridcompare_block,gridcompare_trial,49,38,1184,CFD-WM-225-N-crop.jpg,CFD-WM-219-N-crop.jpg,CFD-WM-220-N-crop.jpg,CFD-WM-001-N-crop.jpg,CFD-WM-235-N-crop.jpg,1.459540279,0.119170357,-2.151252165,0.015929223,-1.885522851,0,100,-0.139153076,-1.885522851,38,1,1.746369774
189809649,gridcompare_block,gridcompare_trial,50,50,649,CFD-WM-239-N-crop.jpg,CFD-WM-014-N-crop.jpg,CFD-WM-002-N-crop.jpg,CFD-WM-038-N-crop.jpg,CFD-WM-211-N-crop.jpg,0.224680527,1.772163002,-0.693257943,-0.718983455,-0.110041389,0,100,0.146150533,-0.110041389,38,0,0.256191922
189809649,gridcompare_block,gridcompare_trial,51,38,527,CFD-WM-233-N-crop.jpg,CFD-WM-216-N-crop.jpg,CFD-WM-240-N-crop.jpg,CFD-WM-254-N-crop.jpg,CFD-WM-224-N-crop.jpg,-0.619400824,-0.051269147,0.857741538,0.06235719,-1.146951669,0,100,0.062357189,-1.146951669,38,1,1.209308859
189809649,gridcompare_block,gridcompare_trial,52,38,739,CFD-WM-237-N-crop.jpg,CFD-WM-231-N-crop.jpg,CFD-WM-017-N-crop.jpg,CFD-WM-220-N-crop.jpg,CFD-WM-010-N-crop.jpg,-0.619400824,0.195574272,-1.191197868,-2.151252165,-2.224990349,0,100,-0.941569146,-2.224990349,38,1,1.283421203
189809649,gridcompare_block,gridcompare_trial,53,50,555,CFD-WM-221-N-crop.jpg,CFD-WM-024-N-crop.jpg,CFD-WM-218-N-crop.jpg,CFD-WM-219-N-crop.jpg,CFD-WM-028-N-crop.jpg,1.021868469,1.686382376,-0.302870319,0.119170357,1.005455775,0,100,0.631137721,1.005455775,50,1,0.374318054
189809649,gridcompare_block,gridcompare_trial,54,38,549,CFD-WM-200-N-crop.jpg,CFD-WM-243-N-crop.jpg,CFD-WM-033-N-crop.jpg,CFD-WM-222-N-crop.jpg,CFD-WM-234-N-crop.jpg,1.312246881,-1.919286104,1.101226542,-1.332504033,-1.026888371,0,100,-0.209579178,-1.026888371,38,1,0.817309193
189809649,gridcompare_block,gridcompare_trial,55,38,1326,CFD-WM-234-N-crop.jpg,CFD-WM-247-N-crop.jpg,CFD-WM-219-N-crop.jpg,CFD-WM-036-N-crop.jpg,CFD-WM-212-N-crop.jpg,-1.026888371,0.06235719,0.119170357,-1.134683045,0.80303256,0,100,-0.495010967,0.80303256,50,0,1.298043528
189809649,gridcompare_block,gridcompare_trial,56,50,878,CFD-WM-017-N-crop.jpg,CFD-WM-213-N-crop.jpg,CFD-WM-244-N-crop.jpg,CFD-WM-249-N-crop.jpg,CFD-WM-247-N-crop.jpg,-1.191197868,1.034998622,-0.947654682,-2.664674864,0.06235719,0,100,-0.942132198,0.06235719,50,1,1.004489388
189809649,gridcompare_block,gridcompare_trial,57,50,927,CFD-WM-232-N-crop.jpg,CFD-WM-207-N-crop.jpg,CFD-WM-023-N-crop.jpg,CFD-WM-202-N-crop.jpg,CFD-WM-239-N-crop.jpg,-1.27590854,0.36536075,1.776852341,1.653125887,0.224680527,0,100,0.629857609,0.224680527,38,0,0.405177083
189809649,gridcompare_block,gridcompare_trial,58,38,558,CFD-WM-001-N-crop.jpg,CFD-WM-016-N-crop.jpg,CFD-WM-239-N-crop.jpg,CFD-WM-240-N-crop.jpg,CFD-WM-010-N-crop.jpg,0.015929223,-0.378935788,0.224680527,0.857741538,-2.224990349,0,100,0.179853875,-2.224990349,38,1,2.404844224
189809649,gridcompare_block,gridcompare_trial,59,50,503,CFD-WM-244-N-crop.jpg,CFD-WM-003-N-crop.jpg,CFD-WM-201-N-crop.jpg,CFD-WM-241-N-crop.jpg,CFD-WM-239-N-crop.jpg,-0.947654682,1.089101185,-0.234059337,-0.291146966,0.224680527,0,100,-0.09593995,0.224680527,50,1,0.320620477
189809649,gridcompare_block,gridcompare_trial,60,38,510,CFD-WM-258-N-crop.jpg,CFD-WM-253-N-crop.jpg,CFD-WM-234-N-crop.jpg,CFD-WM-219-N-crop.jpg,CFD-WM-040-N-crop.jpg,0.36536075,-0.164895482,-1.026888371,0.119170357,0.619492771,0,100,-0.176813187,0.619492771,50,0,0.796305958
189809649,gridcompare_block,gridcompare_trial,61,50,502,CFD-WM-205-N-crop.jpg,CFD-WM-025-N-crop.jpg,CFD-WM-254-N-crop.jpg,CFD-WM-016-N-crop.jpg,CFD-WM-213-N-crop.jpg,-0.501229435,0.824170122,0.06235719,-0.378935788,1.034998622,0,100,0.001590522,1.034998622,50,1,1.0334081
