subject,blockcode,trialcode,trialnum,response,latency,stimulusitem3,stimulusitem4,stimulusitem5,stimulusitem6,stimulusitem8,values.gridface1_code,values.gridface2_code,values.gridface3_code,values.gridface4_code,values.compareface_code,values.trial_retry,values.nTrials,avg_grid,avg_compare,correct_resp,correct_num,easiness
776369198,main_instructions,main_instructions1,1,57,8438,0,0,0,0,0,999,999,999,999,999,999,100,999,999,NA,NA,0
776369198,main_instructions,main_instructions2,2,57,6866,0,0,0,0,0,999,999,999,999,999,999,100,999,999,NA,NA,0
776369198,main_instructions,main_instructions3,3,57,2791,0,0,0,0,0,999,999,999,999,999,999,100,999,999,NA,NA,0
776369198,gridcompare_block,gridcompare_trial,1,50,2115,nexus2_4_tw_-3.00.jpg,nexus2_11_tw_-3.00.jpg,nexus2_10_tw_0.00.jpg,nexus2_16_tw_1.00.jpg,nexus2_13_tw_0.00.jpg,-3,-3,0,1,0,0,100,-1.25,0,50,1,1.25
776369198,gridcompare_block,gridcompare_trial,2,38,638,nexus2_22_tw_1.00.jpg,nexus2_17_tw_0.00.jpg,nexus2_23_tw_0.00.jpg,nexus2_25_tw_-1.00.jpg,nexus2_6_tw_0.00.jpg,1,0,0,-1,0,1,101,0,0,NA,NA,0
776369198,gridcompare_block,gridcompare_trial,3,38,581,nexus2_12_tw_-3.00.jpg,nexus2_21_tw_3.00.jpg,nexus2_20_tw_0.00.jpg,nexus2_24_tw_-3.00.jpg,nexus2_18_tw_-1.00.jpg,-3,3,0,-3,-1,0,101,-0.75,-1,38,1,0.25
776369198,gridcompare_block,gridcompare_trial,4,50,333,nexus2_3_tw_-3.00.jpg,nexus2_1_tw_-1.00.jpg,nexus2_2_tw_1.00.jpg,nexus2_15_tw_-3.00.jpg,nexus2_14_tw_1.00.jpg,-3,-1,1,-3,1,0,101,-1.5,1,50,1,2.5
776369198,gridcompare_block,gridcompare_trial,5,38,256,nexus2_19_tw_2.00.jpg,nexus2_9_tw_1.00.jpg,nexus2_5_tw_-1.00.jpg,nexus2_8_tw_-3.00.jpg,nexus2_7_tw_0.00.jpg,2,1,-1,-3,0,0,101,-0.25,0,50,0,0.25
776369198,gridcompare_block,gridcompare_trial,6,50,189,nexus2_13_tw_-2.00.jpg,nexus2_10_tw_-1.00.jpg,nexus2_4_tw_0.00.jpg,nexus2_21_tw_-2.00.jpg,nexus2_19_tw_-1.00.jpg,-2,-1,0,-2,-1,0,101,-1.25,-1,50,1,0.25
776369198,gridcompare_block,gridcompare_trial,7,50,405,nexus2_2_tw_2.00.jpg,nexus2_7_tw_1.00.jpg,nexus2_24_tw_1.00.jpg,nexus2_1_tw_-2.00.jpg,nexus2_18_tw_-2.00.jpg,2,1,1,-2,-2,0,101,0.5,-2,38,0,2.5
776369198,gridcompare_block,gridcompare_trial,8,38,270,nexus2_16_tw_3.00.jpg,nexus2_22_tw_0.00.jpg,nexus2_25_tw_0.00.jpg,nexus2_3_tw_1.00.jpg,nexus2_12_tw_3.00.jpg,3,0,0,1,3,0,101,1,3,50,0,2
776369198,gridcompare_block,gridcompare_trial,9,50,299,nexus2_23_tw_-3.00.jpg,nexus2_17_tw_-1.00.jpg,nexus2_15_tw_-1.00.jpg,nexus2_11_tw_3.00.jpg,nexus2_8_tw_0.00.jpg,-3,-1,-1,3,0,0,101,-0.5,0,50,1,0.5
776369198,gridcompare_block,gridcompare_trial,10,50,255,nexus2_9_tw_2.00.jpg,nexus2_14_tw_2.00.jpg,nexus2_20_tw_-1.00.jpg,nexus2_5_tw_0.00.jpg,nexus2_6_tw_-3.00.jpg,2,2,-1,0,-3,0,101,0.75,-3,38,0,3.75
776369198,gridcompare_block,gridcompare_trial,11,38,476,nexus2_9_tw_-3.00.jpg,nexus2_15_tw_1.00.jpg,nexus2_11_tw_1.00.jpg,nexus2_20_tw_2.00.jpg,nexus2_1_tw_3.00.jpg,-3,1,1,2,3,0,101,0.25,3,50,0,2.75
776369198,gridcompare_block,gridcompare_trial,12,50,585,nexus2_7_tw_-3.00.jpg,nexus2_19_tw_1.00.jpg,nexus2_13_tw_1.00.jpg,nexus2_4_tw_-1.00.jpg,nexus2_3_tw_2.00.jpg,-3,1,1,-1,2,0,101,-0.5,2,50,1,2.5
776369198,gridcompare_block,gridcompare_trial,13,50,586,nexus2_21_tw_-3.00.jpg,nexus2_25_tw_3.00.jpg,nexus2_10_tw_1.00.jpg,nexus2_14_tw_-3.00.jpg,nexus2_24_tw_0.00.jpg,-3,3,1,-3,0,0,101,-0.5,0,50,1,0.5
776369198,gridcompare_block,gridcompare_trial,14,50,8067,nexus2_22_tw_-2.00.jpg,nexus2_5_tw_3.00.jpg,nexus2_17_tw_3.00.jpg,nexus2_6_tw_3.00.jpg,nexus2_8_tw_-2.00.jpg,-2,3,3,3,-2,0,101,1.75,-2,38,0,3.75
776369198,gridcompare_block,gridcompare_trial,15,50,32,nexus2_23_tw_-2.00.jpg,nexus2_18_tw_1.00.jpg,nexus2_16_tw_0.00.jpg,nexus2_12_tw_0.00.jpg,nexus2_2_tw_-1.00.jpg,-2,1,0,0,-1,0,101,-0.25,-1,38,0,0.75
776369198,gridcompare_block,gridcompare_trial,16,50,870,nexus2_20_tw_3.00.jpg,nexus2_18_tw_2.00.jpg,nexus2_17_tw_-3.00.jpg,nexus2_3_tw_0.00.jpg,nexus2_2_tw_-3.00.jpg,3,2,-3,0,-3,0,101,0.5,-3,38,0,3.5
776369198,gridcompare_block,gridcompare_trial,17,50,635,nexus2_5_tw_1.00.jpg,nexus2_15_tw_-2.00.jpg,nexus2_14_tw_0.00.jpg,nexus2_22_tw_3.00.jpg,nexus2_8_tw_1.00.jpg,1,-2,0,3,1,0,101,0.5,1,50,1,0.5
776369198,gridcompare_block,gridcompare_trial,18,50,600,nexus2_1_tw_1.00.jpg,nexus2_9_tw_3.00.jpg,nexus2_4_tw_1.00.jpg,nexus2_10_tw_3.00.jpg,nexus2_16_tw_-1.00.jpg,1,3,1,3,-1,0,101,2,-1,38,0,3
776369198,gridcompare_block,gridcompare_trial,19,50,512,nexus2_6_tw_2.00.jpg,nexus2_7_tw_2.00.jpg,nexus2_21_tw_0.00.jpg,nexus2_23_tw_-1.00.jpg,nexus2_25_tw_-2.00.jpg,2,2,0,-1,-2,0,101,0.75,-2,38,0,2.75
776369198,gridcompare_block,gridcompare_trial,20,50,269,nexus2_13_tw_-3.00.jpg,nexus2_24_tw_3.00.jpg,nexus2_11_tw_-1.00.jpg,nexus2_19_tw_-2.00.jpg,nexus2_12_tw_1.00.jpg,-3,3,-1,-2,1,0,101,-0.75,1,50,1,1.75
776369198,gridcompare_block,gridcompare_trial,21,38,386,nexus2_6_tw_1.00.jpg,nexus2_17_tw_-2.00.jpg,nexus2_24_tw_2.00.jpg,nexus2_23_tw_1.00.jpg,nexus2_22_tw_2.00.jpg,1,-2,2,1,2,0,101,0.5,2,50,0,1.5
776369198,gridcompare_block,gridcompare_trial,22,50,307,nexus2_13_tw_-1.00.jpg,nexus2_10_tw_2.00.jpg,nexus2_11_tw_2.00.jpg,nexus2_4_tw_-2.00.jpg,nexus2_20_tw_-2.00.jpg,-1,2,2,-2,-2,0,101,0.25,-2,38,0,2.25
776369198,gridcompare_block,gridcompare_trial,23,50,333,nexus2_15_tw_3.00.jpg,nexus2_16_tw_-2.00.jpg,nexus2_2_tw_-2.00.jpg,nexus2_18_tw_-3.00.jpg,nexus2_21_tw_2.00.jpg,3,-2,-2,-3,2,0,101,-1,2,50,1,3
776369198,gridcompare_block,gridcompare_trial,24,50,472,nexus2_3_tw_3.00.jpg,nexus2_1_tw_-3.00.jpg,nexus2_19_tw_0.00.jpg,nexus2_7_tw_-2.00.jpg,nexus2_12_tw_2.00.jpg,3,-3,0,-2,2,0,101,-0.5,2,50,1,2.5
776369198,gridcompare_block,gridcompare_trial,25,50,838,nexus2_9_tw_0.00.jpg,nexus2_14_tw_3.00.jpg,nexus2_8_tw_2.00.jpg,nexus2_5_tw_-3.00.jpg,nexus2_25_tw_2.00.jpg,0,3,2,-3,2,0,101,0.5,2,50,1,1.5
776369198,gridcompare_block,gridcompare_trial,26,38,916,nexus2_2_tw_0.00.jpg,nexus2_8_tw_-1.00.jpg,nexus2_15_tw_0.00.jpg,nexus2_22_tw_-3.00.jpg,nexus2_12_tw_-1.00.jpg,0,-1,0,-3,-1,1,102,-1,-1,NA,NA,0
776369198,gridcompare_block,gridcompare_trial,27,38,3230,nexus2_3_tw_-1.00.jpg,nexus2_14_tw_-1.00.jpg,nexus2_6_tw_-1.00.jpg,nexus2_7_tw_3.00.jpg,nexus2_9_tw_-2.00.jpg,-1,-1,-1,3,-2,0,102,0,-2,38,1,2
776369198,gridcompare_block,gridcompare_trial,28,50,622,nexus2_18_tw_3.00.jpg,nexus2_20_tw_1.00.jpg,nexus2_11_tw_-2.00.jpg,nexus2_25_tw_-3.00.jpg,nexus2_24_tw_-2.00.jpg,3,1,-2,-3,-2,0,102,-0.25,-2,38,0,1.75
776369198,gridcompare_block,gridcompare_trial,29,50,597,nexus2_5_tw_-2.00.jpg,nexus2_17_tw_2.00.jpg,nexus2_16_tw_2.00.jpg,nexus2_13_tw_3.00.jpg,nexus2_10_tw_-2.00.jpg,-2,2,2,3,-2,0,102,1.25,-2,38,0,3.25
776369198,gridcompare_block,gridcompare_trial,30,50,357,nexus2_4_tw_3.00.jpg,nexus2_21_tw_-1.00.jpg,nexus2_1_tw_0.00.jpg,nexus2_23_tw_2.00.jpg,nexus2_19_tw_-3.00.jpg,3,-1,0,2,-3,0,102,1,-3,38,0,4
776369198,gridcompare_block,gridcompare_trial,31,38,160,nexus2_20_tw_-3.00.jpg,nexus2_1_tw_2.00.jpg,nexus2_2_tw_3.00.jpg,nexus2_22_tw_-1.00.jpg,nexus2_16_tw_-3.00.jpg,-3,2,3,-1,-3,0,102,0.25,-3,38,1,3.25
776369198,gridcompare_block,gridcompare_trial,32,50,290,nexus2_6_tw_-2.00.jpg,nexus2_4_tw_2.00.jpg,nexus2_25_tw_1.00.jpg,nexus2_15_tw_2.00.jpg,nexus2_19_tw_3.00.jpg,-2,2,1,2,3,0,102,0.75,3,50,1,2.25
776369198,gridcompare_block,gridcompare_trial,33,50,415,nexus2_7_tw_-1.00.jpg,nexus2_10_tw_-3.00.jpg,nexus2_13_tw_2.00.jpg,nexus2_17_tw_1.00.jpg,nexus2_8_tw_3.00.jpg,-1,-3,2,1,3,0,102,-0.25,3,50,1,3.25
776369198,gridcompare_block,gridcompare_trial,34,50,222,nexus2_9_tw_-1.00.jpg,nexus2_23_tw_3.00.jpg,nexus2_5_tw_2.00.jpg,nexus2_14_tw_-2.00.jpg,nexus2_11_tw_0.00.jpg,-1,3,2,-2,0,0,102,0.5,0,38,0,0.5
776369198,gridcompare_block,gridcompare_trial,35,50,293,nexus2_21_tw_1.00.jpg,nexus2_3_tw_-2.00.jpg,nexus2_18_tw_0.00.jpg,nexus2_24_tw_-1.00.jpg,nexus2_12_tw_-2.00.jpg,1,-2,0,-1,-2,0,102,-0.5,-2,38,0,1.5
776369198,gridcompare_block,gridcompare_trial,36,50,4216,nexus2_19_tw_1.00.jpg,nexus2_15_tw_3.00.jpg,nexus2_13_tw_2.00.jpg,nexus2_18_tw_3.00.jpg,nexus2_4_tw_3.00.jpg,1,3,2,3,3,0,102,2.25,3,50,1,0.75
776369198,gridcompare_block,gridcompare_trial,37,38,504,nexus2_14_tw_1.00.jpg,nexus2_1_tw_3.00.jpg,nexus2_23_tw_0.00.jpg,nexus2_21_tw_3.00.jpg,nexus2_12_tw_-2.00.jpg,1,3,0,3,-2,0,102,1.75,-2,38,1,3.75
776369198,gridcompare_block,gridcompare_trial,38,50,755,nexus2_5_tw_0.00.jpg,nexus2_11_tw_-1.00.jpg,nexus2_17_tw_3.00.jpg,nexus2_20_tw_-1.00.jpg,nexus2_6_tw_-3.00.jpg,0,-1,3,-1,-3,0,102,0.25,-3,38,0,3.25
776369198,gridcompare_block,gridcompare_trial,39,50,389,nexus2_16_tw_-3.00.jpg,nexus2_24_tw_2.00.jpg,nexus2_8_tw_1.00.jpg,nexus2_22_tw_-3.00.jpg,nexus2_3_tw_0.00.jpg,-3,2,1,-3,0,0,102,-0.75,0,50,1,0.75
776369198,gridcompare_block,gridcompare_trial,40,50,149,nexus2_25_tw_0.00.jpg,nexus2_10_tw_-3.00.jpg,nexus2_7_tw_2.00.jpg,nexus2_2_tw_-1.00.jpg,nexus2_9_tw_-3.00.jpg,0,-3,2,-1,-3,0,102,-0.5,-3,38,0,2.5
776369198,gridcompare_block,gridcompare_trial,41,38,455,nexus2_13_tw_0.00.jpg,nexus2_14_tw_0.00.jpg,nexus2_19_tw_-3.00.jpg,nexus2_15_tw_0.00.jpg,nexus2_10_tw_-1.00.jpg,0,0,-3,0,-1,0,102,-0.75,-1,38,1,0.25
776369198,gridcompare_block,gridcompare_trial,42,50,15,nexus2_3_tw_1.00.jpg,nexus2_24_tw_3.00.jpg,nexus2_8_tw_0.00.jpg,nexus2_2_tw_3.00.jpg,nexus2_11_tw_0.00.jpg,1,3,0,3,0,0,102,1.75,0,38,0,1.75
776369198,gridcompare_block,gridcompare_trial,43,50,436,nexus2_21_tw_1.00.jpg,nexus2_7_tw_1.00.jpg,nexus2_18_tw_0.00.jpg,nexus2_6_tw_-2.00.jpg,nexus2_1_tw_-2.00.jpg,1,1,0,-2,-2,0,102,0,-2,38,0,2
776369198,gridcompare_block,gridcompare_trial,44,50,403,nexus2_16_tw_2.00.jpg,nexus2_20_tw_0.00.jpg,nexus2_22_tw_2.00.jpg,nexus2_17_tw_-2.00.jpg,nexus2_4_tw_0.00.jpg,2,0,2,-2,0,0,102,0.5,0,38,0,0.5
776369198,gridcompare_block,gridcompare_trial,45,50,418,nexus2_9_tw_-1.00.jpg,nexus2_5_tw_-1.00.jpg,nexus2_23_tw_3.00.jpg,nexus2_25_tw_-1.00.jpg,nexus2_12_tw_3.00.jpg,-1,-1,3,-1,3,0,102,0,3,50,1,3
776369198,gridcompare_block,gridcompare_trial,46,38,570,nexus2_25_tw_1.00.jpg,nexus2_21_tw_-1.00.jpg,nexus2_9_tw_2.00.jpg,nexus2_23_tw_-3.00.jpg,nexus2_14_tw_-3.00.jpg,1,-1,2,-3,-3,0,102,-0.25,-3,38,1,2.75
776369198,gridcompare_block,gridcompare_trial,47,50,395,nexus2_18_tw_-2.00.jpg,nexus2_4_tw_-3.00.jpg,nexus2_10_tw_3.00.jpg,nexus2_3_tw_-3.00.jpg,nexus2_5_tw_-2.00.jpg,-2,-3,3,-3,-2,0,102,-1.25,-2,38,0,0.75
776369198,gridcompare_block,gridcompare_trial,48,50,411,nexus2_16_tw_1.00.jpg,nexus2_7_tw_-1.00.jpg,nexus2_12_tw_2.00.jpg,nexus2_13_tw_-2.00.jpg,nexus2_24_tw_-3.00.jpg,1,-1,2,-2,-3,0,102,0,-3,38,0,3
776369198,gridcompare_block,gridcompare_trial,49,50,978,nexus2_17_tw_-3.00.jpg,nexus2_22_tw_0.00.jpg,nexus2_8_tw_-3.00.jpg,nexus2_2_tw_-2.00.jpg,nexus2_20_tw_1.00.jpg,-3,0,-3,-2,1,0,102,-2,1,50,1,3
776369198,gridcompare_block,gridcompare_trial,50,38,844,nexus2_11_tw_2.00.jpg,nexus2_15_tw_-2.00.jpg,nexus2_19_tw_0.00.jpg,nexus2_6_tw_0.00.jpg,nexus2_1_tw_2.00.jpg,2,-2,0,0,2,0,102,0,2,50,0,2
776369198,gridcompare_block,gridcompare_trial,51,50,1130,nexus2_13_tw_-3.00.jpg,nexus2_3_tw_2.00.jpg,nexus2_20_tw_3.00.jpg,nexus2_2_tw_2.00.jpg,nexus2_15_tw_-1.00.jpg,-3,2,3,2,-1,0,102,1,-1,38,0,2
776369198,gridcompare_block,gridcompare_trial,52,50,198,nexus2_18_tw_2.00.jpg,nexus2_9_tw_-2.00.jpg,nexus2_21_tw_-2.00.jpg,nexus2_10_tw_-2.00.jpg,nexus2_19_tw_-2.00.jpg,2,-2,-2,-2,-2,0,102,-1,-2,38,0,1
776369198,gridcompare_block,gridcompare_trial,53,50,1494,nexus2_22_tw_1.00.jpg,nexus2_1_tw_-3.00.jpg,nexus2_11_tw_-3.00.jpg,nexus2_16_tw_3.00.jpg,nexus2_14_tw_3.00.jpg,1,-3,-3,3,3,0,102,-0.5,3,50,1,3.5
776369198,gridcompare_block,gridcompare_trial,54,50,290,nexus2_6_tw_3.00.jpg,nexus2_17_tw_1.00.jpg,nexus2_23_tw_-1.00.jpg,nexus2_8_tw_-2.00.jpg,nexus2_24_tw_0.00.jpg,3,1,-1,-2,0,0,102,0.25,0,38,0,0.25
776369198,gridcompare_block,gridcompare_trial,55,50,1607,nexus2_7_tw_-2.00.jpg,nexus2_4_tw_-1.00.jpg,nexus2_5_tw_1.00.jpg,nexus2_25_tw_-3.00.jpg,nexus2_12_tw_0.00.jpg,-2,-1,1,-3,0,0,102,-1.25,0,50,1,1.25
776369198,gridcompare_block,gridcompare_trial,56,38,550,nexus2_2_tw_0.00.jpg,nexus2_6_tw_-1.00.jpg,nexus2_25_tw_2.00.jpg,nexus2_18_tw_1.00.jpg,nexus2_17_tw_2.00.jpg,0,-1,2,1,2,0,102,0.5,2,50,0,1.5
776369198,gridcompare_block,gridcompare_trial,57,50,296,nexus2_22_tw_-2.00.jpg,nexus2_8_tw_2.00.jpg,nexus2_3_tw_-2.00.jpg,nexus2_5_tw_3.00.jpg,nexus2_21_tw_-3.00.jpg,-2,2,-2,3,-3,0,102,0.25,-3,38,0,3.25
776369198,gridcompare_block,gridcompare_trial,58,50,507,nexus2_7_tw_0.00.jpg,nexus2_16_tw_-2.00.jpg,nexus2_14_tw_-2.00.jpg,nexus2_19_tw_3.00.jpg,nexus2_12_tw_1.00.jpg,0,-2,-2,3,1,0,102,-0.25,1,50,1,1.25
776369198,gridcompare_block,gridcompare_trial,59,50,336,nexus2_15_tw_-3.00.jpg,nexus2_4_tw_1.00.jpg,nexus2_11_tw_-2.00.jpg,nexus2_24_tw_-1.00.jpg,nexus2_13_tw_-1.00.jpg,-3,1,-2,-1,-1,0,102,-1.25,-1,50,1,0.25
776369198,gridcompare_block,gridcompare_trial,60,50,402,nexus2_10_tw_0.00.jpg,nexus2_9_tw_1.00.jpg,nexus2_1_tw_0.00.jpg,nexus2_23_tw_2.00.jpg,nexus2_20_tw_-3.00.jpg,0,1,0,2,-3,0,102,0.75,-3,38,0,3.75
776369198,gridcompare_block,gridcompare_trial,61,50,123,nexus2_21_tw_2.00.jpg,nexus2_18_tw_-3.00.jpg,nexus2_24_tw_-2.00.jpg,nexus2_10_tw_1.00.jpg,nexus2_11_tw_3.00.jpg,2,-3,-2,1,3,0,102,-0.5,3,50,1,3.5
776369198,gridcompare_block,gridcompare_trial,62,38,469,nexus2_3_tw_-1.00.jpg,nexus2_19_tw_2.00.jpg,nexus2_16_tw_0.00.jpg,nexus2_8_tw_3.00.jpg,nexus2_5_tw_2.00.jpg,-1,2,0,3,2,0,102,1,2,50,0,1
776369198,gridcompare_block,gridcompare_trial,63,50,9442,nexus2_17_tw_-1.00.jpg,nexus2_13_tw_3.00.jpg,nexus2_6_tw_2.00.jpg,nexus2_9_tw_3.00.jpg,nexus2_4_tw_2.00.jpg,-1,3,2,3,2,0,102,1.75,2,50,1,0.25
776369198,gridcompare_block,gridcompare_trial,64,38,432,nexus2_1_tw_-1.00.jpg,nexus2_22_tw_3.00.jpg,nexus2_14_tw_-1.00.jpg,nexus2_7_tw_3.00.jpg,nexus2_25_tw_-2.00.jpg,-1,3,-1,3,-2,0,102,1,-2,38,1,3
776369198,gridcompare_block,gridcompare_trial,65,50,520,nexus2_20_tw_-2.00.jpg,nexus2_12_tw_-3.00.jpg,nexus2_15_tw_2.00.jpg,nexus2_2_tw_-3.00.jpg,nexus2_23_tw_1.00.jpg,-2,-3,2,-3,1,0,102,-1.5,1,50,1,2.5
776369198,gridcompare_block,gridcompare_trial,66,50,2546,nexus2_4_tw_-2.00.jpg,nexus2_8_tw_-1.00.jpg,nexus2_7_tw_-3.00.jpg,nexus2_9_tw_0.00.jpg,nexus2_6_tw_1.00.jpg,-2,-1,-3,0,1,0,102,-1.5,1,50,1,2.5
776369198,gridcompare_block,gridcompare_trial,67,38,588,nexus2_18_tw_-1.00.jpg,nexus2_17_tw_0.00.jpg,nexus2_10_tw_2.00.jpg,nexus2_2_tw_1.00.jpg,nexus2_24_tw_1.00.jpg,-1,0,2,1,1,0,102,0.5,1,50,0,0.5
776369198,gridcompare_block,gridcompare_trial,68,38,523,nexus2_16_tw_-1.00.jpg,nexus2_13_tw_1.00.jpg,nexus2_20_tw_2.00.jpg,nexus2_12_tw_-1.00.jpg,nexus2_19_tw_-1.00.jpg,-1,1,2,-1,-1,0,102,0.25,-1,38,1,1.25
776369198,gridcompare_block,gridcompare_trial,69,50,312,nexus2_21_tw_0.00.jpg,nexus2_11_tw_1.00.jpg,nexus2_14_tw_2.00.jpg,nexus2_3_tw_3.00.jpg,nexus2_22_tw_-1.00.jpg,0,1,2,3,-1,0,102,1.5,-1,38,0,2.5
776369198,gridcompare_block,gridcompare_trial,70,50,356,nexus2_1_tw_1.00.jpg,nexus2_5_tw_-3.00.jpg,nexus2_25_tw_3.00.jpg,nexus2_15_tw_1.00.jpg,nexus2_23_tw_-2.00.jpg,1,-3,3,1,-2,0,102,0.5,-2,38,0,2.5
776369198,gridcompare_block,gridcompare_trial,71,38,358,nexus2_15_tw_3.00.jpg,nexus2_5_tw_-2.00.jpg,nexus2_23_tw_-2.00.jpg,nexus2_8_tw_0.00.jpg,nexus2_12_tw_0.00.jpg,3,-2,-2,0,0,0,102,-0.25,0,50,0,0.25
776369198,gridcompare_block,gridcompare_trial,72,50,647,nexus2_13_tw_-1.00.jpg,nexus2_1_tw_-2.00.jpg,nexus2_19_tw_2.00.jpg,nexus2_18_tw_0.00.jpg,nexus2_6_tw_-3.00.jpg,-1,-2,2,0,-3,0,102,-0.25,-3,38,0,2.75
776369198,gridcompare_block,gridcompare_trial,73,38,1231,nexus2_14_tw_-1.00.jpg,nexus2_17_tw_-2.00.jpg,nexus2_16_tw_-3.00.jpg,nexus2_7_tw_-2.00.jpg,nexus2_3_tw_0.00.jpg,-1,-2,-3,-2,0,0,102,-2,0,50,0,2
776369198,gridcompare_block,gridcompare_trial,74,50,413,nexus2_21_tw_0.00.jpg,nexus2_20_tw_-3.00.jpg,nexus2_22_tw_2.00.jpg,nexus2_25_tw_3.00.jpg,nexus2_24_tw_-3.00.jpg,0,-3,2,3,-3,0,102,0.5,-3,38,0,3.5
776369198,gridcompare_block,gridcompare_trial,75,50,291,nexus2_4_tw_2.00.jpg,nexus2_2_tw_-1.00.jpg,nexus2_10_tw_3.00.jpg,nexus2_11_tw_0.00.jpg,nexus2_9_tw_0.00.jpg,2,-1,3,0,0,0,102,1,0,38,0,1
776369198,gridcompare_block,gridcompare_trial,76,50,265,nexus2_5_tw_0.00.jpg,nexus2_18_tw_-2.00.jpg,nexus2_6_tw_2.00.jpg,nexus2_13_tw_3.00.jpg,nexus2_22_tw_3.00.jpg,0,-2,2,3,3,0,102,0.75,3,50,1,2.25
776369198,gridcompare_block,gridcompare_trial,77,38,446,nexus2_3_tw_1.00.jpg,nexus2_24_tw_3.00.jpg,nexus2_19_tw_-2.00.jpg,nexus2_21_tw_2.00.jpg,nexus2_20_tw_-1.00.jpg,1,3,-2,2,-1,0,102,1,-1,38,1,2
776369198,gridcompare_block,gridcompare_trial,78,50,621,nexus2_11_tw_-1.00.jpg,nexus2_4_tw_-1.00.jpg,nexus2_10_tw_1.00.jpg,nexus2_16_tw_-1.00.jpg,nexus2_12_tw_2.00.jpg,-1,-1,1,-1,2,0,102,-0.5,2,50,1,2.5
776369198,gridcompare_block,gridcompare_trial,79,50,131,nexus2_9_tw_1.00.jpg,nexus2_23_tw_3.00.jpg,nexus2_1_tw_3.00.jpg,nexus2_14_tw_0.00.jpg,nexus2_17_tw_3.00.jpg,1,3,3,0,3,0,102,1.75,3,50,1,1.25
776369198,gridcompare_block,gridcompare_trial,80,38,86,nexus2_15_tw_-2.00.jpg,nexus2_25_tw_1.00.jpg,nexus2_2_tw_1.00.jpg,nexus2_8_tw_2.00.jpg,nexus2_7_tw_1.00.jpg,-2,1,1,2,1,0,102,0.5,1,50,0,0.5
776369198,gridcompare_block,gridcompare_trial,81,38,1466,nexus2_23_tw_-3.00.jpg,nexus2_21_tw_-3.00.jpg,nexus2_25_tw_-2.00.jpg,nexus2_24_tw_1.00.jpg,nexus2_6_tw_-2.00.jpg,-3,-3,-2,1,-2,0,102,-1.75,-2,38,1,0.25
776369198,gridcompare_block,gridcompare_trial,82,50,320,nexus2_16_tw_0.00.jpg,nexus2_7_tw_-3.00.jpg,nexus2_4_tw_-2.00.jpg,nexus2_20_tw_-2.00.jpg,nexus2_10_tw_2.00.jpg,0,-3,-2,-2,2,0,102,-1.75,2,50,1,3.75
776369198,gridcompare_block,gridcompare_trial,83,38,281,nexus2_2_tw_2.00.jpg,nexus2_18_tw_3.00.jpg,nexus2_22_tw_0.00.jpg,nexus2_8_tw_-1.00.jpg,nexus2_19_tw_1.00.jpg,2,3,0,-1,1,1,103,1,1,NA,NA,0
776369198,gridcompare_block,gridcompare_trial,84,50,782,nexus2_14_tw_2.00.jpg,nexus2_9_tw_-3.00.jpg,nexus2_5_tw_-1.00.jpg,nexus2_15_tw_-3.00.jpg,nexus2_13_tw_-2.00.jpg,2,-3,-1,-3,-2,0,103,-1.25,-2,38,0,0.75
776369198,gridcompare_block,gridcompare_trial,85,50,295,nexus2_17_tw_-3.00.jpg,nexus2_1_tw_0.00.jpg,nexus2_12_tw_1.00.jpg,nexus2_11_tw_2.00.jpg,nexus2_3_tw_2.00.jpg,-3,0,1,2,2,0,103,0,2,50,1,2
776369198,gridcompare_block,gridcompare_trial,86,50,859,nexus2_17_tw_2.00.jpg,nexus2_20_tw_0.00.jpg,nexus2_15_tw_1.00.jpg,nexus2_11_tw_3.00.jpg,nexus2_22_tw_-3.00.jpg,2,0,1,3,-3,0,103,1.5,-3,38,0,4.5
776369198,gridcompare_block,gridcompare_trial,87,50,201,nexus2_16_tw_3.00.jpg,nexus2_14_tw_3.00.jpg,nexus2_24_tw_-2.00.jpg,nexus2_23_tw_0.00.jpg,nexus2_19_tw_-1.00.jpg,3,3,-2,0,-1,0,103,1,-1,38,0,2
776369198,gridcompare_block,gridcompare_trial,88,38,5553,nexus2_4_tw_-3.00.jpg,nexus2_8_tw_-2.00.jpg,nexus2_2_tw_-3.00.jpg,nexus2_12_tw_-1.00.jpg,nexus2_10_tw_-2.00.jpg,-3,-2,-3,-1,-2,0,103,-2.25,-2,50,0,0.25
776369198,gridcompare_block,gridcompare_trial,89,38,59,nexus2_5_tw_1.00.jpg,nexus2_9_tw_2.00.jpg,nexus2_6_tw_0.00.jpg,nexus2_3_tw_3.00.jpg,nexus2_18_tw_1.00.jpg,1,2,0,3,1,0,103,1.5,1,38,1,0.5
776369198,gridcompare_block,gridcompare_trial,90,38,312,nexus2_1_tw_-1.00.jpg,nexus2_13_tw_1.00.jpg,nexus2_25_tw_0.00.jpg,nexus2_7_tw_3.00.jpg,nexus2_21_tw_3.00.jpg,-1,1,0,3,3,0,103,0.75,3,50,0,2.25
776369198,gridcompare_block,gridcompare_trial,91,38,341,nexus2_1_tw_2.00.jpg,nexus2_15_tw_-1.00.jpg,nexus2_7_tw_0.00.jpg,nexus2_16_tw_2.00.jpg,nexus2_6_tw_1.00.jpg,2,-1,0,2,1,0,103,0.75,1,50,0,0.25
776369198,gridcompare_block,gridcompare_trial,92,50,366,nexus2_25_tw_-3.00.jpg,nexus2_22_tw_-1.00.jpg,nexus2_4_tw_0.00.jpg,nexus2_20_tw_2.00.jpg,nexus2_10_tw_0.00.jpg,-3,-1,0,2,0,0,103,-0.5,0,50,1,0.5
776369198,gridcompare_block,gridcompare_trial,93,38,375,nexus2_23_tw_1.00.jpg,nexus2_21_tw_-2.00.jpg,nexus2_18_tw_-1.00.jpg,nexus2_12_tw_-2.00.jpg,nexus2_14_tw_-3.00.jpg,1,-2,-1,-2,-3,0,103,-1,-3,38,1,2
776369198,gridcompare_block,gridcompare_trial,94,38,384,nexus2_24_tw_-1.00.jpg,nexus2_8_tw_1.00.jpg,nexus2_19_tw_0.00.jpg,nexus2_5_tw_-3.00.jpg,nexus2_13_tw_-3.00.jpg,-1,1,0,-3,-3,0,103,-0.75,-3,38,1,2.25
776369198,gridcompare_block,gridcompare_trial,95,38,361,nexus2_9_tw_-1.00.jpg,nexus2_17_tw_1.00.jpg,nexus2_3_tw_-3.00.jpg,nexus2_11_tw_-2.00.jpg,nexus2_2_tw_3.00.jpg,-1,1,-3,-2,3,0,103,-1.25,3,50,0,4.25
776369198,gridcompare_block,gridcompare_trial,96,38,483,nexus2_21_tw_1.00.jpg,nexus2_20_tw_3.00.jpg,nexus2_24_tw_0.00.jpg,nexus2_4_tw_3.00.jpg,nexus2_11_tw_-3.00.jpg,1,3,0,3,-3,0,103,1.75,-3,38,1,4.75
776369198,gridcompare_block,gridcompare_trial,97,38,783,nexus2_2_tw_-2.00.jpg,nexus2_10_tw_-3.00.jpg,nexus2_13_tw_0.00.jpg,nexus2_3_tw_-1.00.jpg,nexus2_14_tw_-2.00.jpg,-2,-3,0,-1,-2,0,103,-1.5,-2,38,1,0.5
776369198,gridcompare_block,gridcompare_trial,98,38,112,nexus2_5_tw_2.00.jpg,nexus2_12_tw_-3.00.jpg,nexus2_16_tw_1.00.jpg,nexus2_22_tw_-2.00.jpg,nexus2_6_tw_3.00.jpg,2,-3,1,-2,3,0,103,-0.5,3,50,0,3.5
776369198,gridcompare_block,gridcompare_trial,99,50,772,nexus2_9_tw_-2.00.jpg,nexus2_1_tw_1.00.jpg,nexus2_19_tw_-3.00.jpg,nexus2_18_tw_-3.00.jpg,nexus2_8_tw_-3.00.jpg,-2,1,-3,-3,-3,0,103,-1.75,-3,38,0,1.25
776369198,gridcompare_block,gridcompare_trial,100,38,660,nexus2_7_tw_-1.00.jpg,nexus2_25_tw_2.00.jpg,nexus2_23_tw_2.00.jpg,nexus2_17_tw_-1.00.jpg,nexus2_15_tw_0.00.jpg,-1,2,2,-1,0,0,103,0.5,0,38,1,0.5
776369198,gridcompare_block,gridcompare_trial,101,38,235,nexus2_9_tw_3.00.jpg,nexus2_16_tw_-2.00.jpg,nexus2_22_tw_1.00.jpg,nexus2_4_tw_1.00.jpg,nexus2_5_tw_3.00.jpg,3,-2,1,1,3,0,103,0.75,3,50,0,2.25
776369198,gridcompare_block,gridcompare_trial,102,38,361,nexus2_24_tw_2.00.jpg,nexus2_3_tw_-2.00.jpg,nexus2_25_tw_-1.00.jpg,nexus2_11_tw_1.00.jpg,nexus2_7_tw_2.00.jpg,2,-2,-1,1,2,0,103,0,2,50,0,2
776369198,gridcompare_block,gridcompare_trial,103,38,251,nexus2_21_tw_-1.00.jpg,nexus2_12_tw_3.00.jpg,nexus2_13_tw_2.00.jpg,nexus2_23_tw_-1.00.jpg,nexus2_14_tw_1.00.jpg,-1,3,2,-1,1,0,103,0.75,1,50,0,0.25
776369198,expt_end,expt_end,1,57,2035,0,0,0,0,0,-1,3,2,-1,1,0,103,0.75,1,50,0,0.25
690355210,main_instructions,main_instructions1,1,57,3122,0,0,0,0,0,999,999,999,999,999,999,100,999,999,NA,NA,0
690355210,main_instructions,main_instructions2,2,57,3067,0,0,0,0,0,999,999,999,999,999,999,100,999,999,NA,NA,0
690355210,main_instructions,main_instructions3,3,57,3112,0,0,0,0,0,999,999,999,999,999,999,100,999,999,NA,NA,0
690355210,gridcompare_block,gridcompare_trial,1,50,10560,nexus2_20_tw_-1.00.jpg,nexus2_2_tw_-2.00.jpg,nexus2_17_tw_2.00.jpg,nexus2_1_tw_-1.00.jpg,nexus2_14_tw_2.00.jpg,-1,-2,2,-1,2,0,100,-0.5,2,50,1,2.5
690355210,gridcompare_block,gridcompare_trial,2,38,1927,nexus2_5_tw_-3.00.jpg,nexus2_3_tw_3.00.jpg,nexus2_12_tw_3.00.jpg,nexus2_6_tw_-2.00.jpg,nexus2_13_tw_0.00.jpg,-3,3,3,-2,0,0,100,0.25,0,38,1,0.25
690355210,gridcompare_block,gridcompare_trial,3,38,1253,nexus2_18_tw_3.00.jpg,nexus2_24_tw_2.00.jpg,nexus2_9_tw_-1.00.jpg,nexus2_25_tw_2.00.jpg,nexus2_11_tw_-1.00.jpg,3,2,-1,2,-1,0,100,1.5,-1,38,1,2.5
690355210,gridcompare_block,gridcompare_trial,4,50,1731,nexus2_22_tw_0.00.jpg,nexus2_15_tw_1.00.jpg,nexus2_23_tw_-2.00.jpg,nexus2_16_tw_0.00.jpg,nexus2_19_tw_-2.00.jpg,0,1,-2,0,-2,0,100,-0.25,-2,38,0,1.75
690355210,gridcompare_block,gridcompare_trial,5,38,1064,nexus2_7_tw_2.00.jpg,nexus2_8_tw_3.00.jpg,nexus2_4_tw_2.00.jpg,nexus2_10_tw_1.00.jpg,nexus2_21_tw_-2.00.jpg,2,3,2,1,-2,0,100,2,-2,38,1,4
690355210,gridcompare_block,gridcompare_trial,6,38,4810,nexus2_2_tw_0.00.jpg,nexus2_13_tw_1.00.jpg,nexus2_10_tw_3.00.jpg,nexus2_15_tw_2.00.jpg,nexus2_3_tw_1.00.jpg,0,1,3,2,1,0,100,1.5,1,38,1,0.5
690355210,gridcompare_block,gridcompare_trial,7,50,409,nexus2_8_tw_1.00.jpg,nexus2_24_tw_-1.00.jpg,nexus2_21_tw_2.00.jpg,nexus2_9_tw_1.00.jpg,nexus2_1_tw_2.00.jpg,1,-1,2,1,2,0,100,0.75,2,50,1,1.25
690355210,gridcompare_block,gridcompare_trial,8,38,372,nexus2_17_tw_0.00.jpg,nexus2_20_tw_2.00.jpg,nexus2_18_tw_2.00.jpg,nexus2_25_tw_-1.00.jpg,nexus2_5_tw_-1.00.jpg,0,2,2,-1,-1,0,100,0.75,-1,38,1,1.75
690355210,gridcompare_block,gridcompare_trial,9,50,7399,nexus2_12_tw_-3.00.jpg,nexus2_19_tw_3.00.jpg,nexus2_14_tw_0.00.jpg,nexus2_4_tw_-3.00.jpg,nexus2_22_tw_2.00.jpg,-3,3,0,-3,2,0,100,-0.75,2,50,1,2.75
690355210,gridcompare_block,gridcompare_trial,10,38,750,nexus2_6_tw_3.00.jpg,nexus2_7_tw_3.00.jpg,nexus2_23_tw_-3.00.jpg,nexus2_11_tw_-3.00.jpg,nexus2_16_tw_1.00.jpg,3,3,-3,-3,1,0,100,0,1,50,0,1
690355210,gridcompare_block,gridcompare_trial,11,38,4726,nexus2_19_tw_0.00.jpg,nexus2_9_tw_0.00.jpg,nexus2_5_tw_2.00.jpg,nexus2_8_tw_-2.00.jpg,nexus2_2_tw_2.00.jpg,0,0,2,-2,2,0,100,0,2,50,0,2
690355210,gridcompare_block,gridcompare_trial,12,38,928,nexus2_10_tw_-2.00.jpg,nexus2_18_tw_-2.00.jpg,nexus2_15_tw_-1.00.jpg,nexus2_13_tw_-3.00.jpg,nexus2_1_tw_-3.00.jpg,-2,-2,-1,-3,-3,0,100,-2,-3,38,1,1
690355210,gridcompare_block,gridcompare_trial,13,38,879,nexus2_23_tw_3.00.jpg,nexus2_14_tw_-1.00.jpg,nexus2_12_tw_2.00.jpg,nexus2_24_tw_-3.00.jpg,nexus2_20_tw_0.00.jpg,3,-1,2,-3,0,0,100,0.25,0,38,1,0.25
690355210,gridcompare_block,gridcompare_trial,14,38,1116,nexus2_4_tw_1.00.jpg,nexus2_17_tw_-2.00.jpg,nexus2_25_tw_-3.00.jpg,nexus2_7_tw_-3.00.jpg,nexus2_11_tw_2.00.jpg,1,-2,-3,-3,2,0,100,-1.75,2,50,0,3.75
690355210,gridcompare_block,gridcompare_trial,15,50,1635,nexus2_21_tw_-1.00.jpg,nexus2_6_tw_2.00.jpg,nexus2_16_tw_2.00.jpg,nexus2_3_tw_-3.00.jpg,nexus2_22_tw_-1.00.jpg,-1,2,2,-3,-1,0,100,0,-1,38,0,1
690355210,gridcompare_block,gridcompare_trial,16,38,731,nexus2_9_tw_-2.00.jpg,nexus2_4_tw_0.00.jpg,nexus2_14_tw_-3.00.jpg,nexus2_10_tw_-3.00.jpg,nexus2_23_tw_1.00.jpg,-2,0,-3,-3,1,0,100,-2,1,50,0,3
690355210,gridcompare_block,gridcompare_trial,17,38,1165,nexus2_25_tw_-2.00.jpg,nexus2_19_tw_-3.00.jpg,nexus2_11_tw_1.00.jpg,nexus2_15_tw_-2.00.jpg,nexus2_24_tw_3.00.jpg,-2,-3,1,-2,3,0,100,-1.5,3,50,0,4.5
690355210,gridcompare_block,gridcompare_trial,18,38,855,nexus2_2_tw_3.00.jpg,nexus2_20_tw_-3.00.jpg,nexus2_3_tw_-2.00.jpg,nexus2_12_tw_-1.00.jpg,nexus2_6_tw_1.00.jpg,3,-3,-2,-1,1,0,100,-0.75,1,50,0,1.75
690355210,gridcompare_block,gridcompare_trial,19,38,380,nexus2_16_tw_-1.00.jpg,nexus2_22_tw_-3.00.jpg,nexus2_8_tw_-3.00.jpg,nexus2_17_tw_3.00.jpg,nexus2_13_tw_3.00.jpg,-1,-3,-3,3,3,0,100,-1,3,50,0,4
690355210,gridcompare_block,gridcompare_trial,20,38,168,nexus2_1_tw_1.00.jpg,nexus2_7_tw_-1.00.jpg,nexus2_21_tw_-3.00.jpg,nexus2_18_tw_-3.00.jpg,nexus2_5_tw_1.00.jpg,1,-1,-3,-3,1,0,100,-1.5,1,50,0,2.5
690355210,gridcompare_block,gridcompare_trial,21,50,803,nexus2_7_tw_0.00.jpg,nexus2_11_tw_0.00.jpg,nexus2_10_tw_2.00.jpg,nexus2_9_tw_-3.00.jpg,nexus2_5_tw_-2.00.jpg,0,0,2,-3,-2,0,100,-0.25,-2,38,0,1.75
690355210,gridcompare_block,gridcompare_trial,22,38,795,nexus2_8_tw_-1.00.jpg,nexus2_22_tw_-2.00.jpg,nexus2_21_tw_1.00.jpg,nexus2_6_tw_-1.00.jpg,nexus2_14_tw_3.00.jpg,-1,-2,1,-1,3,0,100,-0.75,3,50,0,3.75
690355210,gridcompare_block,gridcompare_trial,23,38,1372,nexus2_13_tw_-1.00.jpg,nexus2_3_tw_2.00.jpg,nexus2_15_tw_0.00.jpg,nexus2_2_tw_1.00.jpg,nexus2_25_tw_1.00.jpg,-1,2,0,1,1,0,100,0.5,1,50,0,0.5
690355210,gridcompare_block,gridcompare_trial,24,38,991,nexus2_18_tw_-1.00.jpg,nexus2_24_tw_0.00.jpg,nexus2_17_tw_-1.00.jpg,nexus2_23_tw_0.00.jpg,nexus2_1_tw_0.00.jpg,-1,0,-1,0,0,0,100,-0.5,0,50,0,0.5
690355210,gridcompare_block,gridcompare_trial,25,38,847,nexus2_16_tw_3.00.jpg,nexus2_4_tw_-2.00.jpg,nexus2_19_tw_-1.00.jpg,nexus2_12_tw_0.00.jpg,nexus2_20_tw_-2.00.jpg,3,-2,-1,0,-2,0,100,0,-2,38,1,2
690355210,gridcompare_block,gridcompare_trial,26,38,552,nexus2_13_tw_2.00.jpg,nexus2_4_tw_3.00.jpg,nexus2_14_tw_-2.00.jpg,nexus2_16_tw_-2.00.jpg,nexus2_21_tw_0.00.jpg,2,3,-2,-2,0,0,100,0.25,0,38,1,0.25
690355210,gridcompare_block,gridcompare_trial,27,38,367,nexus2_19_tw_1.00.jpg,nexus2_1_tw_-2.00.jpg,nexus2_3_tw_-1.00.jpg,nexus2_6_tw_0.00.jpg,nexus2_11_tw_3.00.jpg,1,-2,-1,0,3,0,100,-0.5,3,50,0,3.5
690355210,gridcompare_block,gridcompare_trial,28,38,2323,nexus2_10_tw_-1.00.jpg,nexus2_20_tw_1.00.jpg,nexus2_5_tw_0.00.jpg,nexus2_12_tw_-2.00.jpg,nexus2_24_tw_-2.00.jpg,-1,1,0,-2,-2,0,100,-0.5,-2,38,1,1.5
690355210,gridcompare_block,gridcompare_trial,29,38,1446,nexus2_18_tw_1.00.jpg,nexus2_23_tw_2.00.jpg,nexus2_15_tw_-3.00.jpg,nexus2_2_tw_-1.00.jpg,nexus2_7_tw_-2.00.jpg,1,2,-3,-1,-2,0,100,-0.25,-2,38,1,1.75
690355210,gridcompare_block,gridcompare_trial,30,50,1049,nexus2_8_tw_2.00.jpg,nexus2_17_tw_1.00.jpg,nexus2_9_tw_3.00.jpg,nexus2_22_tw_1.00.jpg,nexus2_25_tw_0.00.jpg,2,1,3,1,0,0,100,1.75,0,38,0,1.75
690355210,gridcompare_block,gridcompare_trial,31,38,1792,nexus2_23_tw_-1.00.jpg,nexus2_1_tw_3.00.jpg,nexus2_6_tw_-3.00.jpg,nexus2_15_tw_3.00.jpg,nexus2_18_tw_0.00.jpg,-1,3,-3,3,0,0,100,0.5,0,38,1,0.5
690355210,gridcompare_block,gridcompare_trial,32,50,989,nexus2_8_tw_0.00.jpg,nexus2_7_tw_1.00.jpg,nexus2_16_tw_-3.00.jpg,nexus2_24_tw_1.00.jpg,nexus2_10_tw_0.00.jpg,0,1,-3,1,0,0,100,-0.25,0,50,1,0.25
690355210,gridcompare_block,gridcompare_trial,33,38,958,nexus2_13_tw_-2.00.jpg,nexus2_5_tw_3.00.jpg,nexus2_11_tw_-2.00.jpg,nexus2_19_tw_2.00.jpg,nexus2_2_tw_-3.00.jpg,-2,3,-2,2,-3,0,100,0.25,-3,38,1,3.25
690355210,gridcompare_block,gridcompare_trial,34,38,185,nexus2_25_tw_3.00.jpg,nexus2_22_tw_3.00.jpg,nexus2_3_tw_0.00.jpg,nexus2_14_tw_1.00.jpg,nexus2_17_tw_-3.00.jpg,3,3,0,1,-3,0,100,1.75,-3,38,1,4.75
690355210,gridcompare_block,gridcompare_trial,35,38,1092,nexus2_21_tw_3.00.jpg,nexus2_4_tw_-1.00.jpg,nexus2_9_tw_2.00.jpg,nexus2_20_tw_3.00.jpg,nexus2_12_tw_1.00.jpg,3,-1,2,3,1,0,100,1.75,1,38,1,0.75
690355210,gridcompare_block,gridcompare_trial,36,38,736,nexus2_16_tw_1.00.jpg,nexus2_4_tw_-1.00.jpg,nexus2_25_tw_-2.00.jpg,nexus2_8_tw_3.00.jpg,nexus2_14_tw_2.00.jpg,1,-1,-2,3,2,0,100,0.25,2,50,0,1.75
690355210,gridcompare_block,gridcompare_trial,37,38,767,nexus2_3_tw_3.00.jpg,nexus2_15_tw_0.00.jpg,nexus2_17_tw_0.00.jpg,nexus2_1_tw_-2.00.jpg,nexus2_18_tw_3.00.jpg,3,0,0,-2,3,0,100,0.25,3,50,0,2.75
690355210,gridcompare_block,gridcompare_trial,38,38,787,nexus2_5_tw_0.00.jpg,nexus2_23_tw_1.00.jpg,nexus2_9_tw_-2.00.jpg,nexus2_10_tw_0.00.jpg,nexus2_12_tw_2.00.jpg,0,1,-2,0,2,0,100,-0.25,2,50,0,2.25
690355210,gridcompare_block,gridcompare_trial,39,38,806,nexus2_22_tw_3.00.jpg,nexus2_7_tw_-3.00.jpg,nexus2_2_tw_-3.00.jpg,nexus2_13_tw_0.00.jpg,nexus2_21_tw_1.00.jpg,3,-3,-3,0,1,0,100,-0.75,1,50,0,1.75
690355210,gridcompare_block,gridcompare_trial,40,38,1894,nexus2_19_tw_1.00.jpg,nexus2_24_tw_0.00.jpg,nexus2_11_tw_-1.00.jpg,nexus2_20_tw_3.00.jpg,nexus2_6_tw_3.00.jpg,1,0,-1,3,3,0,100,0.75,3,50,0,2.25
690355210,gridcompare_block,gridcompare_trial,41,38,824,nexus2_16_tw_-2.00.jpg,nexus2_1_tw_0.00.jpg,nexus2_23_tw_-1.00.jpg,nexus2_18_tw_-1.00.jpg,nexus2_2_tw_2.00.jpg,-2,0,-1,-1,2,0,100,-1,2,50,0,3
690355210,gridcompare_block,gridcompare_trial,42,38,800,nexus2_24_tw_1.00.jpg,nexus2_5_tw_3.00.jpg,nexus2_15_tw_-3.00.jpg,nexus2_14_tw_-1.00.jpg,nexus2_6_tw_-2.00.jpg,1,3,-3,-1,-2,0,100,0,-2,38,1,2
690355210,gridcompare_block,gridcompare_trial,43,38,376,nexus2_20_tw_1.00.jpg,nexus2_4_tw_3.00.jpg,nexus2_13_tw_3.00.jpg,nexus2_19_tw_-2.00.jpg,nexus2_3_tw_2.00.jpg,1,3,3,-2,2,0,100,1.25,2,50,0,0.75
690355210,gridcompare_block,gridcompare_trial,44,38,820,nexus2_21_tw_3.00.jpg,nexus2_22_tw_-3.00.jpg,nexus2_17_tw_-1.00.jpg,nexus2_12_tw_-2.00.jpg,nexus2_9_tw_0.00.jpg,3,-3,-1,-2,0,0,100,-0.75,0,50,0,0.75
690355210,gridcompare_block,gridcompare_trial,45,38,1098,nexus2_10_tw_3.00.jpg,nexus2_8_tw_-2.00.jpg,nexus2_7_tw_1.00.jpg,nexus2_11_tw_1.00.jpg,nexus2_25_tw_3.00.jpg,3,-2,1,1,3,0,100,0.75,3,50,0,2.25
690355210,gridcompare_block,gridcompare_trial,46,38,3091,nexus2_12_tw_-3.00.jpg,nexus2_14_tw_1.00.jpg,nexus2_17_tw_3.00.jpg,nexus2_3_tw_1.00.jpg,nexus2_4_tw_2.00.jpg,-3,1,3,1,2,0,100,0.5,2,50,0,1.5
690355210,gridcompare_block,gridcompare_trial,47,38,3638,nexus2_7_tw_0.00.jpg,nexus2_5_tw_1.00.jpg,nexus2_11_tw_-3.00.jpg,nexus2_25_tw_0.00.jpg,nexus2_9_tw_1.00.jpg,0,1,-3,0,1,0,100,-0.5,1,50,0,1.5
690355210,gridcompare_block,gridcompare_trial,48,38,1161,nexus2_21_tw_2.00.jpg,nexus2_23_tw_2.00.jpg,nexus2_15_tw_2.00.jpg,nexus2_10_tw_-3.00.jpg,nexus2_13_tw_-3.00.jpg,2,2,2,-3,-3,0,100,0.75,-3,38,1,3.75
690355210,gridcompare_block,gridcompare_trial,49,38,1111,nexus2_1_tw_2.00.jpg,nexus2_20_tw_0.00.jpg,nexus2_19_tw_2.00.jpg,nexus2_22_tw_0.00.jpg,nexus2_6_tw_1.00.jpg,2,0,2,0,1,1,101,1,1,NA,NA,0
690355210,gridcompare_block,gridcompare_trial,50,38,354,nexus2_24_tw_2.00.jpg,nexus2_18_tw_-3.00.jpg,nexus2_16_tw_2.00.jpg,nexus2_8_tw_-3.00.jpg,nexus2_2_tw_0.00.jpg,2,-3,2,-3,0,0,101,-0.5,0,50,0,0.5
690355210,gridcompare_block,gridcompare_trial,51,38,766,nexus2_6_tw_-1.00.jpg,nexus2_25_tw_-3.00.jpg,nexus2_4_tw_-2.00.jpg,nexus2_10_tw_1.00.jpg,nexus2_22_tw_-2.00.jpg,-1,-3,-2,1,-2,0,101,-1.25,-2,38,1,0.75
690355210,gridcompare_block,gridcompare_trial,52,38,1672,nexus2_16_tw_3.00.jpg,nexus2_13_tw_-2.00.jpg,nexus2_2_tw_-2.00.jpg,nexus2_24_tw_-2.00.jpg,nexus2_23_tw_3.00.jpg,3,-2,-2,-2,3,0,101,-0.75,3,50,0,3.75
690355210,gridcompare_block,gridcompare_trial,53,38,856,nexus2_15_tw_-1.00.jpg,nexus2_12_tw_3.00.jpg,nexus2_11_tw_2.00.jpg,nexus2_20_tw_-1.00.jpg,nexus2_8_tw_2.00.jpg,-1,3,2,-1,2,0,101,0.75,2,50,0,1.25
690355210,gridcompare_block,gridcompare_trial,54,38,1241,nexus2_9_tw_-3.00.jpg,nexus2_18_tw_-2.00.jpg,nexus2_3_tw_-2.00.jpg,nexus2_19_tw_3.00.jpg,nexus2_14_tw_-2.00.jpg,-3,-2,-2,3,-2,0,101,-1,-2,38,1,1
690355210,gridcompare_block,gridcompare_trial,55,38,538,nexus2_17_tw_1.00.jpg,nexus2_1_tw_3.00.jpg,nexus2_21_tw_0.00.jpg,nexus2_5_tw_-2.00.jpg,nexus2_7_tw_-2.00.jpg,1,3,0,-2,-2,0,101,0.5,-2,38,1,2.5
690355210,gridcompare_block,gridcompare_trial,56,38,1449,nexus2_12_tw_0.00.jpg,nexus2_25_tw_-1.00.jpg,nexus2_19_tw_-3.00.jpg,nexus2_14_tw_3.00.jpg,nexus2_21_tw_-1.00.jpg,0,-1,-3,3,-1,0,101,-0.25,-1,38,1,0.75
690355210,gridcompare_block,gridcompare_trial,57,38,7986,nexus2_13_tw_-1.00.jpg,nexus2_7_tw_-1.00.jpg,nexus2_10_tw_-1.00.jpg,nexus2_11_tw_3.00.jpg,nexus2_6_tw_0.00.jpg,-1,-1,-1,3,0,1,102,0,0,NA,NA,0
690355210,gridcompare_block,gridcompare_trial,58,38,1972,nexus2_2_tw_-1.00.jpg,nexus2_1_tw_-3.00.jpg,nexus2_18_tw_0.00.jpg,nexus2_9_tw_-1.00.jpg,nexus2_5_tw_-3.00.jpg,-1,-3,0,-1,-3,0,102,-1.25,-3,38,1,1.75
690355210,gridcompare_block,gridcompare_trial,59,38,820,nexus2_22_tw_2.00.jpg,nexus2_15_tw_-2.00.jpg,nexus2_4_tw_0.00.jpg,nexus2_16_tw_-3.00.jpg,nexus2_8_tw_1.00.jpg,2,-2,0,-3,1,0,102,-0.75,1,50,0,1.75
690355210,gridcompare_block,gridcompare_trial,60,50,748,nexus2_24_tw_-3.00.jpg,nexus2_20_tw_2.00.jpg,nexus2_17_tw_-3.00.jpg,nexus2_3_tw_0.00.jpg,nexus2_23_tw_-3.00.jpg,-3,2,-3,0,-3,0,102,-1,-3,38,0,2
690355210,gridcompare_block,gridcompare_trial,61,50,1973,nexus2_15_tw_3.00.jpg,nexus2_9_tw_2.00.jpg,nexus2_4_tw_1.00.jpg,nexus2_16_tw_0.00.jpg,nexus2_22_tw_1.00.jpg,3,2,1,0,1,0,102,1.5,1,38,0,0.5
690355210,gridcompare_block,gridcompare_trial,62,50,1273,nexus2_24_tw_3.00.jpg,nexus2_2_tw_1.00.jpg,nexus2_19_tw_-1.00.jpg,nexus2_20_tw_-3.00.jpg,nexus2_23_tw_0.00.jpg,3,1,-1,-3,0,1,103,0,0,NA,NA,0
690355210,gridcompare_block,gridcompare_trial,63,38,3443,nexus2_8_tw_-1.00.jpg,nexus2_18_tw_2.00.jpg,nexus2_3_tw_-3.00.jpg,nexus2_14_tw_0.00.jpg,nexus2_10_tw_-2.00.jpg,-1,2,-3,0,-2,0,103,-0.5,-2,38,1,1.5
690355210,gridcompare_block,gridcompare_trial,64,38,783,nexus2_1_tw_1.00.jpg,nexus2_13_tw_1.00.jpg,nexus2_7_tw_2.00.jpg,nexus2_6_tw_-3.00.jpg,nexus2_5_tw_-1.00.jpg,1,1,2,-3,-1,0,103,0.25,-1,38,1,1.25
690355210,gridcompare_block,gridcompare_trial,65,38,719,nexus2_17_tw_-2.00.jpg,nexus2_11_tw_-2.00.jpg,nexus2_25_tw_1.00.jpg,nexus2_21_tw_-2.00.jpg,nexus2_12_tw_1.00.jpg,-2,-2,1,-2,1,0,103,-1.25,1,50,0,2.25
690355210,gridcompare_block,gridcompare_trial,66,38,483,nexus2_2_tw_3.00.jpg,nexus2_21_tw_-3.00.jpg,nexus2_24_tw_-1.00.jpg,nexus2_1_tw_-1.00.jpg,nexus2_10_tw_2.00.jpg,3,-3,-1,-1,2,0,103,-0.5,2,50,0,2.5
690355210,gridcompare_block,gridcompare_trial,67,38,1025,nexus2_5_tw_2.00.jpg,nexus2_12_tw_-1.00.jpg,nexus2_13_tw_2.00.jpg,nexus2_23_tw_-2.00.jpg,nexus2_6_tw_2.00.jpg,2,-1,2,-2,2,0,103,0.25,2,50,0,1.75
690355210,gridcompare_block,gridcompare_trial,68,50,1414,nexus2_25_tw_2.00.jpg,nexus2_16_tw_-1.00.jpg,nexus2_11_tw_0.00.jpg,nexus2_4_tw_-3.00.jpg,nexus2_18_tw_1.00.jpg,2,-1,0,-3,1,0,103,-0.5,1,50,1,1.5
690355210,gridcompare_block,gridcompare_trial,69,38,1131,nexus2_8_tw_0.00.jpg,nexus2_15_tw_1.00.jpg,nexus2_22_tw_-1.00.jpg,nexus2_7_tw_3.00.jpg,nexus2_19_tw_0.00.jpg,0,1,-1,3,0,0,103,0.75,0,38,1,0.75
690355210,gridcompare_block,gridcompare_trial,70,38,600,nexus2_3_tw_-1.00.jpg,nexus2_17_tw_2.00.jpg,nexus2_14_tw_-3.00.jpg,nexus2_20_tw_-2.00.jpg,nexus2_9_tw_3.00.jpg,-1,2,-3,-2,3,0,103,-1,3,50,0,4
690355210,gridcompare_block,gridcompare_trial,71,38,582,nexus2_2_tw_-2.00.jpg,nexus2_16_tw_-1.00.jpg,nexus2_3_tw_1.00.jpg,nexus2_9_tw_-2.00.jpg,nexus2_11_tw_-2.00.jpg,-2,-1,1,-2,-2,0,103,-1,-2,38,1,1
690355210,gridcompare_block,gridcompare_trial,72,38,817,nexus2_20_tw_1.00.jpg,nexus2_4_tw_2.00.jpg,nexus2_5_tw_0.00.jpg,nexus2_15_tw_-2.00.jpg,nexus2_14_tw_0.00.jpg,1,2,0,-2,0,0,103,0.25,0,38,1,0.25
690355210,gridcompare_block,gridcompare_trial,73,38,703,nexus2_7_tw_-1.00.jpg,nexus2_22_tw_-2.00.jpg,nexus2_23_tw_0.00.jpg,nexus2_17_tw_-3.00.jpg,nexus2_13_tw_-2.00.jpg,-1,-2,0,-3,-2,0,103,-1.5,-2,38,1,0.5
690355210,gridcompare_block,gridcompare_trial,74,38,522,nexus2_1_tw_1.00.jpg,nexus2_25_tw_2.00.jpg,nexus2_19_tw_1.00.jpg,nexus2_8_tw_-2.00.jpg,nexus2_21_tw_1.00.jpg,1,2,1,-2,1,0,103,0.5,1,50,0,0.5
690355210,gridcompare_block,gridcompare_trial,75,38,652,nexus2_12_tw_-3.00.jpg,nexus2_6_tw_3.00.jpg,nexus2_18_tw_-2.00.jpg,nexus2_24_tw_-2.00.jpg,nexus2_10_tw_2.00.jpg,-3,3,-2,-2,2,0,103,-1,2,50,0,3
690355210,gridcompare_block,gridcompare_trial,76,38,703,nexus2_24_tw_-1.00.jpg,nexus2_17_tw_3.00.jpg,nexus2_14_tw_-1.00.jpg,nexus2_25_tw_-3.00.jpg,nexus2_23_tw_-2.00.jpg,-1,3,-1,-3,-2,0,103,-0.5,-2,38,1,1.5
690355210,gridcompare_block,gridcompare_trial,77,38,3761,nexus2_7_tw_3.00.jpg,nexus2_19_tw_-3.00.jpg,nexus2_3_tw_-1.00.jpg,nexus2_21_tw_2.00.jpg,nexus2_4_tw_3.00.jpg,3,-3,-1,2,3,0,103,0.25,3,50,0,2.75
690355210,gridcompare_block,gridcompare_trial,78,38,453,nexus2_8_tw_0.00.jpg,nexus2_12_tw_1.00.jpg,nexus2_9_tw_1.00.jpg,nexus2_1_tw_2.00.jpg,nexus2_20_tw_-1.00.jpg,0,1,1,2,-1,0,103,1,-1,38,1,2
690355210,gridcompare_block,gridcompare_trial,79,38,955,nexus2_22_tw_-3.00.jpg,nexus2_15_tw_3.00.jpg,nexus2_18_tw_3.00.jpg,nexus2_13_tw_-1.00.jpg,nexus2_11_tw_1.00.jpg,-3,3,3,-1,1,0,103,0.5,1,50,0,0.5
690355210,gridcompare_block,gridcompare_trial,80,38,714,nexus2_16_tw_1.00.jpg,nexus2_5_tw_2.00.jpg,nexus2_10_tw_-1.00.jpg,nexus2_6_tw_1.00.jpg,nexus2_2_tw_-3.00.jpg,1,2,-1,1,-3,0,103,0.75,-3,38,1,3.75
690355210,gridcompare_block,gridcompare_trial,81,50,738,nexus2_19_tw_0.00.jpg,nexus2_24_tw_1.00.jpg,nexus2_22_tw_3.00.jpg,nexus2_18_tw_0.00.jpg,nexus2_23_tw_2.00.jpg,0,1,3,0,2,0,103,1,2,50,1,1
690355210,gridcompare_block,gridcompare_trial,82,50,1318,nexus2_11_tw_-1.00.jpg,nexus2_1_tw_-3.00.jpg,nexus2_4_tw_-2.00.jpg,nexus2_21_tw_-2.00.jpg,nexus2_6_tw_-1.00.jpg,-1,-3,-2,-2,-1,0,103,-2,-1,50,1,1
690355210,gridcompare_block,gridcompare_trial,83,38,172,nexus2_3_tw_0.00.jpg,nexus2_2_tw_0.00.jpg,nexus2_12_tw_2.00.jpg,nexus2_25_tw_3.00.jpg,nexus2_16_tw_-3.00.jpg,0,0,2,3,-3,0,103,1.25,-3,38,1,4.25
690355210,gridcompare_block,gridcompare_trial,84,50,811,nexus2_15_tw_2.00.jpg,nexus2_9_tw_2.00.jpg,nexus2_5_tw_-1.00.jpg,nexus2_7_tw_-3.00.jpg,nexus2_8_tw_1.00.jpg,2,2,-1,-3,1,0,103,0,1,50,1,1
690355210,gridcompare_block,gridcompare_trial,85,38,1164,nexus2_20_tw_0.00.jpg,nexus2_13_tw_2.00.jpg,nexus2_10_tw_3.00.jpg,nexus2_14_tw_3.00.jpg,nexus2_17_tw_1.00.jpg,0,2,3,3,1,0,103,2,1,38,1,1
690355210,gridcompare_block,gridcompare_trial,86,38,1702,nexus2_23_tw_-1.00.jpg,nexus2_1_tw_-2.00.jpg,nexus2_17_tw_2.00.jpg,nexus2_15_tw_0.00.jpg,nexus2_8_tw_-1.00.jpg,-1,-2,2,0,-1,0,103,-0.25,-1,38,1,0.75
690355210,gridcompare_block,gridcompare_trial,87,38,795,nexus2_4_tw_-1.00.jpg,nexus2_19_tw_2.00.jpg,nexus2_25_tw_-2.00.jpg,nexus2_13_tw_1.00.jpg,nexus2_3_tw_3.00.jpg,-1,2,-2,1,3,0,103,0,3,50,0,3
690355210,gridcompare_block,gridcompare_trial,88,38,808,nexus2_5_tw_3.00.jpg,nexus2_9_tw_3.00.jpg,nexus2_20_tw_2.00.jpg,nexus2_24_tw_-3.00.jpg,nexus2_7_tw_0.00.jpg,3,3,2,-3,0,0,103,1.25,0,38,1,1.25
690355210,gridcompare_block,gridcompare_trial,89,38,698,nexus2_18_tw_-1.00.jpg,nexus2_21_tw_0.00.jpg,nexus2_2_tw_-1.00.jpg,nexus2_6_tw_-3.00.jpg,nexus2_16_tw_-2.00.jpg,-1,0,-1,-3,-2,0,103,-1.25,-2,38,1,0.75
690355210,gridcompare_block,gridcompare_trial,90,38,1357,nexus2_22_tw_1.00.jpg,nexus2_12_tw_0.00.jpg,nexus2_14_tw_-3.00.jpg,nexus2_11_tw_2.00.jpg,nexus2_10_tw_1.00.jpg,1,0,-3,2,1,0,103,0,1,50,0,1
690355210,gridcompare_block,gridcompare_trial,91,38,793,nexus2_7_tw_-2.00.jpg,nexus2_16_tw_3.00.jpg,nexus2_19_tw_-2.00.jpg,nexus2_15_tw_-1.00.jpg,nexus2_20_tw_3.00.jpg,-2,3,-2,-1,3,0,103,-0.5,3,50,0,3.5
690355210,gridcompare_block,gridcompare_trial,92,38,1114,nexus2_9_tw_-1.00.jpg,nexus2_10_tw_-3.00.jpg,nexus2_12_tw_-1.00.jpg,nexus2_23_tw_1.00.jpg,nexus2_21_tw_-3.00.jpg,-1,-3,-1,1,-3,0,103,-1,-3,38,1,2
690355210,gridcompare_block,gridcompare_trial,93,38,1027,nexus2_14_tw_-2.00.jpg,nexus2_24_tw_0.00.jpg,nexus2_17_tw_0.00.jpg,nexus2_13_tw_-3.00.jpg,nexus2_4_tw_0.00.jpg,-2,0,0,-3,0,0,103,-1.25,0,50,0,1.25
690355210,gridcompare_block,gridcompare_trial,94,50,1082,nexus2_6_tw_-2.00.jpg,nexus2_25_tw_0.00.jpg,nexus2_8_tw_2.00.jpg,nexus2_11_tw_0.00.jpg,nexus2_18_tw_2.00.jpg,-2,0,2,0,2,0,103,0,2,50,1,2
690355210,gridcompare_block,gridcompare_trial,95,38,2471,nexus2_1_tw_0.00.jpg,nexus2_5_tw_-3.00.jpg,nexus2_22_tw_0.00.jpg,nexus2_3_tw_2.00.jpg,nexus2_2_tw_1.00.jpg,0,-3,0,2,1,0,103,-0.25,1,50,0,1.25
690355210,gridcompare_block,gridcompare_trial,96,38,1925,nexus2_7_tw_2.00.jpg,nexus2_5_tw_-2.00.jpg,nexus2_1_tw_-1.00.jpg,nexus2_12_tw_3.00.jpg,nexus2_3_tw_-2.00.jpg,2,-2,-1,3,-2,0,103,0.5,-2,38,1,2.5
690355210,gridcompare_block,gridcompare_trial,97,38,1230,nexus2_4_tw_1.00.jpg,nexus2_24_tw_2.00.jpg,nexus2_10_tw_0.00.jpg,nexus2_8_tw_-3.00.jpg,nexus2_19_tw_3.00.jpg,1,2,0,-3,3,0,103,0,3,50,0,3
690355210,gridcompare_block,gridcompare_trial,98,38,1130,nexus2_15_tw_-3.00.jpg,nexus2_14_tw_1.00.jpg,nexus2_21_tw_-1.00.jpg,nexus2_6_tw_2.00.jpg,nexus2_20_tw_-2.00.jpg,-3,1,-1,2,-2,0,103,-0.25,-2,38,1,1.75
690355210,gridcompare_block,gridcompare_trial,99,38,550,nexus2_23_tw_3.00.jpg,nexus2_2_tw_3.00.jpg,nexus2_25_tw_-1.00.jpg,nexus2_11_tw_-3.00.jpg,nexus2_13_tw_3.00.jpg,3,3,-1,-3,3,0,103,0.5,3,50,0,2.5
690355210,gridcompare_block,gridcompare_trial,100,50,691,nexus2_16_tw_2.00.jpg,nexus2_22_tw_2.00.jpg,nexus2_17_tw_-2.00.jpg,nexus2_9_tw_0.00.jpg,nexus2_18_tw_1.00.jpg,2,2,-2,0,1,0,103,0.5,1,50,1,0.5
690355210,gridcompare_block,gridcompare_trial,101,50,384,nexus2_19_tw_-1.00.jpg,nexus2_14_tw_2.00.jpg,nexus2_3_tw_-3.00.jpg,nexus2_21_tw_3.00.jpg,nexus2_11_tw_3.00.jpg,-1,2,-3,3,3,0,103,0.25,3,50,1,2.75
690355210,gridcompare_block,gridcompare_trial,102,38,1425,nexus2_2_tw_2.00.jpg,nexus2_17_tw_-1.00.jpg,nexus2_25_tw_1.00.jpg,nexus2_22_tw_-1.00.jpg,nexus2_16_tw_0.00.jpg,2,-1,1,-1,0,0,103,0.25,0,38,1,0.25
690355210,gridcompare_block,gridcompare_trial,103,38,1304,nexus2_10_tw_-2.00.jpg,nexus2_4_tw_-3.00.jpg,nexus2_5_tw_1.00.jpg,nexus2_8_tw_3.00.jpg,nexus2_13_tw_0.00.jpg,-2,-3,1,3,0,0,103,-0.25,0,50,0,0.25
690355210,expt_end,expt_end,1,57,4897,0,0,0,0,0,-2,-3,1,3,0,0,103,-0.25,0,50,0,0.25
66240800,main_instructions,main_instructions1,1,57,5953,0,0,0,0,0,999,999,999,999,999,999,100,999,999,NA,NA,0
66240800,main_instructions,main_instructions2,2,57,5267,0,0,0,0,0,999,999,999,999,999,999,100,999,999,NA,NA,0
66240800,main_instructions,main_instructions3,3,57,2540,0,0,0,0,0,999,999,999,999,999,999,100,999,999,NA,NA,0
66240800,gridcompare_block,gridcompare_trial,1,50,2448,nexus2_4_tw_3.00.jpg,nexus2_18_tw_2.00.jpg,nexus2_15_tw_2.00.jpg,nexus2_14_tw_-1.00.jpg,nexus2_21_tw_-3.00.jpg,3,2,2,-1,-3,0,100,1.5,-3,38,0,4.5
66240800,gridcompare_block,gridcompare_trial,2,38,418,nexus2_11_tw_-1.00.jpg,nexus2_2_tw_1.00.jpg,nexus2_19_tw_3.00.jpg,nexus2_23_tw_-1.00.jpg,nexus2_25_tw_0.00.jpg,-1,1,3,-1,0,0,100,0.5,0,38,1,0.5
66240800,gridcompare_block,gridcompare_trial,3,50,343,nexus2_24_tw_3.00.jpg,nexus2_12_tw_1.00.jpg,nexus2_13_tw_-2.00.jpg,nexus2_1_tw_3.00.jpg,nexus2_6_tw_-2.00.jpg,3,1,-2,3,-2,0,100,1.25,-2,38,0,3.25
66240800,gridcompare_block,gridcompare_trial,4,38,286,nexus2_5_tw_-3.00.jpg,nexus2_17_tw_0.00.jpg,nexus2_8_tw_1.00.jpg,nexus2_7_tw_-3.00.jpg,nexus2_3_tw_3.00.jpg,-3,0,1,-3,3,0,100,-1.25,3,50,0,4.25
66240800,gridcompare_block,gridcompare_trial,5,38,150,nexus2_22_tw_-2.00.jpg,nexus2_20_tw_3.00.jpg,nexus2_10_tw_1.00.jpg,nexus2_16_tw_0.00.jpg,nexus2_9_tw_0.00.jpg,-2,3,1,0,0,0,100,0.5,0,38,1,0.5
66240800,gridcompare_block,gridcompare_trial,6,50,430,nexus2_16_tw_1.00.jpg,nexus2_14_tw_3.00.jpg,nexus2_3_tw_1.00.jpg,nexus2_9_tw_1.00.jpg,nexus2_2_tw_-3.00.jpg,1,3,1,1,-3,0,100,1.5,-3,38,0,4.5
66240800,gridcompare_block,gridcompare_trial,7,50,300,nexus2_17_tw_1.00.jpg,nexus2_18_tw_3.00.jpg,nexus2_25_tw_3.00.jpg,nexus2_11_tw_2.00.jpg,nexus2_1_tw_1.00.jpg,1,3,3,2,1,0,100,2.25,1,38,0,1.25
66240800,gridcompare_block,gridcompare_trial,8,50,2636,nexus2_7_tw_3.00.jpg,nexus2_4_tw_-1.00.jpg,nexus2_5_tw_1.00.jpg,nexus2_10_tw_2.00.jpg,nexus2_8_tw_0.00.jpg,3,-1,1,2,0,0,100,1.25,0,38,0,1.25
66240800,gridcompare_block,gridcompare_trial,9,38,877,nexus2_6_tw_0.00.jpg,nexus2_12_tw_-2.00.jpg,nexus2_13_tw_-1.00.jpg,nexus2_23_tw_1.00.jpg,nexus2_20_tw_-3.00.jpg,0,-2,-1,1,-3,0,100,-0.5,-3,38,1,2.5
66240800,gridcompare_block,gridcompare_trial,10,50,514,nexus2_15_tw_-3.00.jpg,nexus2_22_tw_-3.00.jpg,nexus2_19_tw_-1.00.jpg,nexus2_24_tw_-2.00.jpg,nexus2_21_tw_-2.00.jpg,-3,-3,-1,-2,-2,0,100,-2.25,-2,50,1,0.25
66240800,gridcompare_block,gridcompare_trial,11,50,354,nexus2_22_tw_-1.00.jpg,nexus2_5_tw_3.00.jpg,nexus2_4_tw_-3.00.jpg,nexus2_21_tw_0.00.jpg,nexus2_8_tw_3.00.jpg,-1,3,-3,0,3,0,100,-0.25,3,50,1,3.25
66240800,gridcompare_block,gridcompare_trial,12,50,466,nexus2_7_tw_-2.00.jpg,nexus2_19_tw_-3.00.jpg,nexus2_12_tw_3.00.jpg,nexus2_15_tw_3.00.jpg,nexus2_18_tw_-1.00.jpg,-2,-3,3,3,-1,0,100,0.25,-1,38,0,1.25
66240800,gridcompare_block,gridcompare_trial,13,38,540,nexus2_23_tw_0.00.jpg,nexus2_17_tw_-3.00.jpg,nexus2_9_tw_3.00.jpg,nexus2_6_tw_-3.00.jpg,nexus2_10_tw_-2.00.jpg,0,-3,3,-3,-2,0,100,-0.75,-2,38,1,1.25
66240800,gridcompare_block,gridcompare_trial,14,38,776,nexus2_20_tw_-1.00.jpg,nexus2_3_tw_-2.00.jpg,nexus2_24_tw_2.00.jpg,nexus2_16_tw_2.00.jpg,nexus2_1_tw_-3.00.jpg,-1,-2,2,2,-3,0,100,0.25,-3,38,1,3.25
66240800,gridcompare_block,gridcompare_trial,15,50,412,nexus2_11_tw_-3.00.jpg,nexus2_25_tw_2.00.jpg,nexus2_13_tw_-3.00.jpg,nexus2_2_tw_-2.00.jpg,nexus2_14_tw_1.00.jpg,-3,2,-3,-2,1,0,100,-1.5,1,50,1,2.5
66240800,gridcompare_block,gridcompare_trial,16,50,2673,nexus2_22_tw_1.00.jpg,nexus2_21_tw_3.00.jpg,nexus2_7_tw_-1.00.jpg,nexus2_23_tw_-2.00.jpg,nexus2_15_tw_-1.00.jpg,1,3,-1,-2,-1,0,100,0.25,-1,38,0,1.25
66240800,gridcompare_block,gridcompare_trial,17,50,571,nexus2_13_tw_3.00.jpg,nexus2_25_tw_-1.00.jpg,nexus2_24_tw_0.00.jpg,nexus2_12_tw_2.00.jpg,nexus2_3_tw_-3.00.jpg,3,-1,0,2,-3,0,100,1,-3,38,0,4
66240800,gridcompare_block,gridcompare_trial,18,50,245,nexus2_9_tw_-3.00.jpg,nexus2_18_tw_-3.00.jpg,nexus2_11_tw_1.00.jpg,nexus2_20_tw_-2.00.jpg,nexus2_8_tw_-1.00.jpg,-3,-3,1,-2,-1,0,100,-1.75,-1,50,1,0.75
66240800,gridcompare_block,gridcompare_trial,19,50,424,nexus2_16_tw_-3.00.jpg,nexus2_14_tw_2.00.jpg,nexus2_6_tw_2.00.jpg,nexus2_10_tw_0.00.jpg,nexus2_5_tw_-2.00.jpg,-3,2,2,0,-2,0,100,0.25,-2,38,0,2.25
66240800,gridcompare_block,gridcompare_trial,20,38,442,nexus2_2_tw_0.00.jpg,nexus2_19_tw_1.00.jpg,nexus2_1_tw_-1.00.jpg,nexus2_17_tw_3.00.jpg,nexus2_4_tw_0.00.jpg,0,1,-1,3,0,0,100,0.75,0,38,1,0.75
66240800,gridcompare_block,gridcompare_trial,21,38,462,nexus2_14_tw_-3.00.jpg,nexus2_10_tw_-1.00.jpg,nexus2_2_tw_2.00.jpg,nexus2_12_tw_-1.00.jpg,nexus2_13_tw_0.00.jpg,-3,-1,2,-1,0,0,100,-0.75,0,50,0,0.75
66240800,gridcompare_block,gridcompare_trial,22,38,456,nexus2_17_tw_-2.00.jpg,nexus2_1_tw_0.00.jpg,nexus2_20_tw_2.00.jpg,nexus2_23_tw_2.00.jpg,nexus2_9_tw_2.00.jpg,-2,0,2,2,2,0,100,0.5,2,50,0,1.5
66240800,gridcompare_block,gridcompare_trial,23,50,343,nexus2_24_tw_-1.00.jpg,nexus2_19_tw_0.00.jpg,nexus2_21_tw_1.00.jpg,nexus2_6_tw_-1.00.jpg,nexus2_11_tw_-2.00.jpg,-1,0,1,-1,-2,0,100,-0.25,-2,38,0,1.75
66240800,gridcompare_block,gridcompare_trial,24,50,331,nexus2_18_tw_1.00.jpg,nexus2_3_tw_0.00.jpg,nexus2_16_tw_-2.00.jpg,nexus2_5_tw_2.00.jpg,nexus2_15_tw_0.00.jpg,1,0,-2,2,0,0,100,0.25,0,38,0,0.25
66240800,gridcompare_block,gridcompare_trial,25,50,793,nexus2_22_tw_2.00.jpg,nexus2_25_tw_-2.00.jpg,nexus2_4_tw_2.00.jpg,nexus2_7_tw_0.00.jpg,nexus2_8_tw_-2.00.jpg,2,-2,2,0,-2,0,100,0.5,-2,38,0,2.5
66240800,gridcompare_block,gridcompare_trial,26,38,555,nexus2_9_tw_-1.00.jpg,nexus2_15_tw_1.00.jpg,nexus2_5_tw_-1.00.jpg,nexus2_19_tw_-2.00.jpg,nexus2_23_tw_-3.00.jpg,-1,1,-1,-2,-3,0,100,-0.75,-3,38,1,2.25
66240800,gridcompare_block,gridcompare_trial,27,50,582,nexus2_16_tw_3.00.jpg,nexus2_11_tw_3.00.jpg,nexus2_1_tw_-2.00.jpg,nexus2_6_tw_1.00.jpg,nexus2_20_tw_0.00.jpg,3,3,-2,1,0,0,100,1.25,0,38,0,1.25
66240800,gridcompare_block,gridcompare_trial,28,50,2475,nexus2_25_tw_-3.00.jpg,nexus2_4_tw_1.00.jpg,nexus2_12_tw_0.00.jpg,nexus2_14_tw_-2.00.jpg,nexus2_2_tw_3.00.jpg,-3,1,0,-2,3,0,100,-1,3,50,1,4
66240800,gridcompare_block,gridcompare_trial,29,50,2075,nexus2_8_tw_2.00.jpg,nexus2_18_tw_0.00.jpg,nexus2_21_tw_2.00.jpg,nexus2_22_tw_3.00.jpg,nexus2_13_tw_2.00.jpg,2,0,2,3,2,0,100,1.75,2,50,1,0.25
66240800,gridcompare_block,gridcompare_trial,30,38,325,nexus2_10_tw_3.00.jpg,nexus2_24_tw_1.00.jpg,nexus2_3_tw_-1.00.jpg,nexus2_7_tw_2.00.jpg,nexus2_17_tw_2.00.jpg,3,1,-1,2,2,0,100,1.25,2,50,0,0.75
66240800,gridcompare_block,gridcompare_trial,31,50,476,nexus2_18_tw_-2.00.jpg,nexus2_13_tw_1.00.jpg,nexus2_15_tw_-2.00.jpg,nexus2_2_tw_-1.00.jpg,nexus2_7_tw_1.00.jpg,-2,1,-2,-1,1,0,100,-1,1,50,1,2
66240800,gridcompare_block,gridcompare_trial,32,38,698,nexus2_6_tw_3.00.jpg,nexus2_12_tw_-3.00.jpg,nexus2_23_tw_3.00.jpg,nexus2_24_tw_-3.00.jpg,nexus2_25_tw_1.00.jpg,3,-3,3,-3,1,0,100,0,1,50,0,1
66240800,gridcompare_block,gridcompare_trial,33,50,446,nexus2_3_tw_2.00.jpg,nexus2_5_tw_0.00.jpg,nexus2_1_tw_2.00.jpg,nexus2_4_tw_-2.00.jpg,nexus2_22_tw_0.00.jpg,2,0,2,-2,0,0,100,0.5,0,38,0,0.5
66240800,gridcompare_block,gridcompare_trial,34,38,2389,nexus2_17_tw_-1.00.jpg,nexus2_21_tw_-1.00.jpg,nexus2_11_tw_0.00.jpg,nexus2_10_tw_-3.00.jpg,nexus2_8_tw_-3.00.jpg,-1,-1,0,-3,-3,0,100,-1.25,-3,38,1,1.75
66240800,gridcompare_block,gridcompare_trial,35,38,873,nexus2_9_tw_-2.00.jpg,nexus2_14_tw_0.00.jpg,nexus2_16_tw_-1.00.jpg,nexus2_19_tw_2.00.jpg,nexus2_20_tw_1.00.jpg,-2,0,-1,2,1,0,100,-0.25,1,50,0,1.25
66240800,gridcompare_block,gridcompare_trial,36,38,2281,nexus2_17_tw_1.00.jpg,nexus2_13_tw_3.00.jpg,nexus2_4_tw_0.00.jpg,nexus2_5_tw_2.00.jpg,nexus2_21_tw_-3.00.jpg,1,3,0,2,-3,0,100,1.5,-3,38,1,4.5
66240800,gridcompare_block,gridcompare_trial,37,50,2709,nexus2_16_tw_3.00.jpg,nexus2_11_tw_3.00.jpg,nexus2_15_tw_-2.00.jpg,nexus2_7_tw_2.00.jpg,nexus2_19_tw_-2.00.jpg,3,3,-2,2,-2,0,100,1.5,-2,38,0,3.5
66240800,gridcompare_block,gridcompare_trial,38,38,1127,nexus2_18_tw_-3.00.jpg,nexus2_3_tw_2.00.jpg,nexus2_24_tw_-1.00.jpg,nexus2_2_tw_-2.00.jpg,nexus2_23_tw_2.00.jpg,-3,2,-1,-2,2,0,100,-1,2,50,0,3
66240800,gridcompare_block,gridcompare_trial,39,38,801,nexus2_6_tw_1.00.jpg,nexus2_22_tw_1.00.jpg,nexus2_8_tw_-3.00.jpg,nexus2_9_tw_-2.00.jpg,nexus2_20_tw_0.00.jpg,1,1,-3,-2,0,0,100,-0.75,0,50,0,0.75
66240800,gridcompare_block,gridcompare_trial,40,50,1277,nexus2_10_tw_0.00.jpg,nexus2_1_tw_-2.00.jpg,nexus2_12_tw_2.00.jpg,nexus2_14_tw_2.00.jpg,nexus2_25_tw_-1.00.jpg,0,-2,2,2,-1,0,100,0.5,-1,38,0,1.5
66240800,gridcompare_block,gridcompare_trial,41,38,946,nexus2_7_tw_3.00.jpg,nexus2_16_tw_-3.00.jpg,nexus2_4_tw_1.00.jpg,nexus2_8_tw_1.00.jpg,nexus2_12_tw_-1.00.jpg,3,-3,1,1,-1,0,100,0.5,-1,38,1,1.5
66240800,gridcompare_block,gridcompare_trial,42,50,2464,nexus2_19_tw_-1.00.jpg,nexus2_6_tw_2.00.jpg,nexus2_15_tw_-1.00.jpg,nexus2_9_tw_1.00.jpg,nexus2_21_tw_-2.00.jpg,-1,2,-1,1,-2,0,100,0.25,-2,38,0,2.25
66240800,gridcompare_block,gridcompare_trial,43,50,502,nexus2_24_tw_2.00.jpg,nexus2_18_tw_1.00.jpg,nexus2_14_tw_-3.00.jpg,nexus2_3_tw_3.00.jpg,nexus2_1_tw_3.00.jpg,2,1,-3,3,3,0,100,0.75,3,50,1,2.25
66240800,gridcompare_block,gridcompare_trial,44,38,312,nexus2_5_tw_-1.00.jpg,nexus2_13_tw_1.00.jpg,nexus2_20_tw_-2.00.jpg,nexus2_23_tw_-3.00.jpg,nexus2_11_tw_1.00.jpg,-1,1,-2,-3,1,0,100,-1.25,1,50,0,2.25
66240800,gridcompare_block,gridcompare_trial,45,38,462,nexus2_22_tw_0.00.jpg,nexus2_17_tw_2.00.jpg,nexus2_25_tw_2.00.jpg,nexus2_10_tw_-2.00.jpg,nexus2_2_tw_1.00.jpg,0,2,2,-2,1,0,100,0.5,1,50,0,0.5
66240800,gridcompare_block,gridcompare_trial,46,38,3755,nexus2_3_tw_-3.00.jpg,nexus2_2_tw_-3.00.jpg,nexus2_22_tw_3.00.jpg,nexus2_18_tw_-1.00.jpg,nexus2_17_tw_-3.00.jpg,-3,-3,3,-1,-3,0,100,-1,-3,38,1,2
66240800,gridcompare_block,gridcompare_trial,47,50,1859,nexus2_21_tw_2.00.jpg,nexus2_9_tw_-1.00.jpg,nexus2_14_tw_0.00.jpg,nexus2_20_tw_3.00.jpg,nexus2_19_tw_0.00.jpg,2,-1,0,3,0,0,100,1,0,38,0,1
66240800,gridcompare_block,gridcompare_trial,48,50,710,nexus2_12_tw_3.00.jpg,nexus2_23_tw_0.00.jpg,nexus2_13_tw_0.00.jpg,nexus2_7_tw_-3.00.jpg,nexus2_16_tw_-1.00.jpg,3,0,0,-3,-1,0,100,0,-1,38,0,1
66240800,gridcompare_block,gridcompare_trial,49,50,4097,nexus2_6_tw_-1.00.jpg,nexus2_10_tw_-3.00.jpg,nexus2_11_tw_2.00.jpg,nexus2_1_tw_0.00.jpg,nexus2_4_tw_-2.00.jpg,-1,-3,2,0,-2,0,100,-0.5,-2,38,0,1.5
66240800,gridcompare_block,gridcompare_trial,50,38,380,nexus2_8_tw_2.00.jpg,nexus2_15_tw_3.00.jpg,nexus2_5_tw_-2.00.jpg,nexus2_24_tw_3.00.jpg,nexus2_25_tw_0.00.jpg,2,3,-2,3,0,0,100,1.5,0,38,1,1.5
66240800,gridcompare_block,gridcompare_trial,51,50,951,nexus2_3_tw_0.00.jpg,nexus2_20_tw_2.00.jpg,nexus2_23_tw_-2.00.jpg,nexus2_1_tw_1.00.jpg,nexus2_2_tw_2.00.jpg,0,2,-2,1,2,0,100,0.25,2,50,1,1.75
66240800,gridcompare_block,gridcompare_trial,52,38,1592,nexus2_7_tw_-2.00.jpg,nexus2_8_tw_-1.00.jpg,nexus2_24_tw_-2.00.jpg,nexus2_19_tw_-3.00.jpg,nexus2_6_tw_3.00.jpg,-2,-1,-2,-3,3,0,100,-2,3,50,0,5
66240800,gridcompare_block,gridcompare_trial,53,50,475,nexus2_12_tw_1.00.jpg,nexus2_13_tw_-1.00.jpg,nexus2_22_tw_-1.00.jpg,nexus2_4_tw_-3.00.jpg,nexus2_16_tw_0.00.jpg,1,-1,-1,-3,0,0,100,-1,0,50,1,1
66240800,gridcompare_block,gridcompare_trial,54,38,860,nexus2_10_tw_2.00.jpg,nexus2_14_tw_3.00.jpg,nexus2_17_tw_3.00.jpg,nexus2_9_tw_3.00.jpg,nexus2_15_tw_2.00.jpg,2,3,3,3,2,0,100,2.75,2,38,1,0.75
66240800,gridcompare_block,gridcompare_trial,55,38,4354,nexus2_25_tw_-2.00.jpg,nexus2_11_tw_0.00.jpg,nexus2_21_tw_3.00.jpg,nexus2_5_tw_3.00.jpg,nexus2_18_tw_2.00.jpg,-2,0,3,3,2,0,100,1,2,50,0,1
66240800,gridcompare_block,gridcompare_trial,56,50,524,nexus2_13_tw_-2.00.jpg,nexus2_5_tw_1.00.jpg,nexus2_6_tw_-3.00.jpg,nexus2_19_tw_3.00.jpg,nexus2_8_tw_-2.00.jpg,-2,1,-3,3,-2,0,100,-0.25,-2,38,0,1.75
66240800,gridcompare_block,gridcompare_trial,57,38,401,nexus2_21_tw_1.00.jpg,nexus2_1_tw_-1.00.jpg,nexus2_20_tw_-3.00.jpg,nexus2_18_tw_-2.00.jpg,nexus2_9_tw_2.00.jpg,1,-1,-3,-2,2,0,100,-1.25,2,50,0,3.25
66240800,gridcompare_block,gridcompare_trial,58,38,2049,nexus2_15_tw_1.00.jpg,nexus2_2_tw_0.00.jpg,nexus2_10_tw_-1.00.jpg,nexus2_22_tw_2.00.jpg,nexus2_14_tw_-2.00.jpg,1,0,-1,2,-2,0,100,0.5,-2,38,1,2.5
66240800,gridcompare_block,gridcompare_trial,59,50,358,nexus2_3_tw_-2.00.jpg,nexus2_16_tw_1.00.jpg,nexus2_12_tw_0.00.jpg,nexus2_4_tw_2.00.jpg,nexus2_7_tw_1.00.jpg,-2,1,0,2,1,0,100,0.25,1,50,1,0.75
66240800,gridcompare_block,gridcompare_trial,60,38,2653,nexus2_25_tw_-3.00.jpg,nexus2_17_tw_-1.00.jpg,nexus2_23_tw_-1.00.jpg,nexus2_11_tw_-1.00.jpg,nexus2_24_tw_-3.00.jpg,-3,-1,-1,-1,-3,0,100,-1.5,-3,38,1,1.5
66240800,gridcompare_block,gridcompare_trial,61,38,1013,nexus2_5_tw_0.00.jpg,nexus2_11_tw_-3.00.jpg,nexus2_10_tw_1.00.jpg,nexus2_14_tw_1.00.jpg,nexus2_13_tw_-3.00.jpg,0,-3,1,1,-3,0,100,-0.25,-3,38,1,2.75
66240800,gridcompare_block,gridcompare_trial,62,38,1149,nexus2_3_tw_-1.00.jpg,nexus2_1_tw_-3.00.jpg,nexus2_19_tw_2.00.jpg,nexus2_8_tw_0.00.jpg,nexus2_25_tw_3.00.jpg,-1,-3,2,0,3,0,100,-0.5,3,50,0,3.5
66240800,gridcompare_block,gridcompare_trial,63,50,560,nexus2_6_tw_-2.00.jpg,nexus2_16_tw_2.00.jpg,nexus2_21_tw_0.00.jpg,nexus2_12_tw_-2.00.jpg,nexus2_20_tw_-1.00.jpg,-2,2,0,-2,-1,0,100,-0.5,-1,38,0,0.5
66240800,gridcompare_block,gridcompare_trial,64,50,2246,nexus2_7_tw_-1.00.jpg,nexus2_24_tw_0.00.jpg,nexus2_22_tw_-3.00.jpg,nexus2_2_tw_3.00.jpg,nexus2_9_tw_0.00.jpg,-1,0,-3,3,0,0,100,-0.25,0,50,1,0.25
66240800,gridcompare_block,gridcompare_trial,65,50,2473,nexus2_23_tw_3.00.jpg,nexus2_4_tw_3.00.jpg,nexus2_15_tw_0.00.jpg,nexus2_18_tw_0.00.jpg,nexus2_17_tw_-2.00.jpg,3,3,0,0,-2,0,100,1.5,-2,38,0,3.5
66240800,gridcompare_block,gridcompare_trial,66,50,978,nexus2_22_tw_-2.00.jpg,nexus2_17_tw_0.00.jpg,nexus2_9_tw_-3.00.jpg,nexus2_24_tw_1.00.jpg,nexus2_10_tw_3.00.jpg,-2,0,-3,1,3,0,100,-1,3,50,1,4
66240800,gridcompare_block,gridcompare_trial,67,50,4215,nexus2_6_tw_0.00.jpg,nexus2_8_tw_3.00.jpg,nexus2_1_tw_2.00.jpg,nexus2_16_tw_-2.00.jpg,nexus2_23_tw_1.00.jpg,0,3,2,-2,1,0,100,0.75,1,50,1,0.25
66240800,gridcompare_block,gridcompare_trial,68,50,749,nexus2_3_tw_1.00.jpg,nexus2_7_tw_0.00.jpg,nexus2_19_tw_1.00.jpg,nexus2_21_tw_-1.00.jpg,nexus2_15_tw_-3.00.jpg,1,0,1,-1,-3,0,100,0.25,-3,38,0,3.25
66240800,gridcompare_block,gridcompare_trial,69,50,1383,nexus2_4_tw_-1.00.jpg,nexus2_5_tw_-3.00.jpg,nexus2_2_tw_-1.00.jpg,nexus2_11_tw_-2.00.jpg,nexus2_18_tw_3.00.jpg,-1,-3,-1,-2,3,0,100,-1.75,3,50,1,4.75
66240800,gridcompare_block,gridcompare_trial,70,38,1726,nexus2_25_tw_1.00.jpg,nexus2_13_tw_2.00.jpg,nexus2_14_tw_-1.00.jpg,nexus2_20_tw_1.00.jpg,nexus2_12_tw_-3.00.jpg,1,2,-1,1,-3,0,100,0.75,-3,38,1,3.75
66240800,gridcompare_block,gridcompare_trial,71,50,696,nexus2_21_tw_-3.00.jpg,nexus2_3_tw_1.00.jpg,nexus2_13_tw_1.00.jpg,nexus2_1_tw_1.00.jpg,nexus2_7_tw_0.00.jpg,-3,1,1,1,0,1,101,0,0,NA,NA,0
66240800,gridcompare_block,gridcompare_trial,72,50,828,nexus2_15_tw_0.00.jpg,nexus2_14_tw_0.00.jpg,nexus2_19_tw_-2.00.jpg,nexus2_12_tw_0.00.jpg,nexus2_6_tw_3.00.jpg,0,0,-2,0,3,0,101,-0.5,3,50,1,3.5
66240800,gridcompare_block,gridcompare_trial,73,38,530,nexus2_17_tw_2.00.jpg,nexus2_20_tw_3.00.jpg,nexus2_5_tw_-3.00.jpg,nexus2_25_tw_-3.00.jpg,nexus2_11_tw_2.00.jpg,2,3,-3,-3,2,0,101,-0.25,2,50,0,2.25
66240800,gridcompare_block,gridcompare_trial,74,50,1581,nexus2_8_tw_-1.00.jpg,nexus2_18_tw_-1.00.jpg,nexus2_23_tw_1.00.jpg,nexus2_24_tw_3.00.jpg,nexus2_9_tw_-3.00.jpg,-1,-1,1,3,-3,0,101,0.5,-3,38,0,3.5
66240800,gridcompare_block,gridcompare_trial,75,38,1009,nexus2_4_tw_-1.00.jpg,nexus2_2_tw_-1.00.jpg,nexus2_22_tw_2.00.jpg,nexus2_16_tw_0.00.jpg,nexus2_10_tw_-2.00.jpg,-1,-1,2,0,-2,0,101,0,-2,38,1,2
66240800,gridcompare_block,gridcompare_trial,76,50,704,nexus2_8_tw_0.00.jpg,nexus2_2_tw_-3.00.jpg,nexus2_10_tw_-1.00.jpg,nexus2_1_tw_0.00.jpg,nexus2_7_tw_-1.00.jpg,0,-3,-1,0,-1,1,102,-1,-1,NA,NA,0
66240800,gridcompare_block,gridcompare_trial,77,38,1601,nexus2_9_tw_2.00.jpg,nexus2_13_tw_-1.00.jpg,nexus2_19_tw_-1.00.jpg,nexus2_22_tw_3.00.jpg,nexus2_14_tw_2.00.jpg,2,-1,-1,3,2,0,102,0.75,2,50,0,1.25
66240800,gridcompare_block,gridcompare_trial,78,38,477,nexus2_6_tw_-1.00.jpg,nexus2_18_tw_0.00.jpg,nexus2_11_tw_1.00.jpg,nexus2_23_tw_-3.00.jpg,nexus2_5_tw_-1.00.jpg,-1,0,1,-3,-1,0,102,-0.75,-1,38,1,0.25
66240800,gridcompare_block,gridcompare_trial,79,38,1815,nexus2_20_tw_2.00.jpg,nexus2_15_tw_-3.00.jpg,nexus2_17_tw_-3.00.jpg,nexus2_25_tw_2.00.jpg,nexus2_3_tw_-2.00.jpg,2,-3,-3,2,-2,0,102,-0.5,-2,38,1,1.5
66240800,gridcompare_block,gridcompare_trial,80,38,1000,nexus2_21_tw_2.00.jpg,nexus2_12_tw_-2.00.jpg,nexus2_24_tw_-2.00.jpg,nexus2_16_tw_2.00.jpg,nexus2_4_tw_1.00.jpg,2,-2,-2,2,1,0,102,0,1,50,0,1
66240800,gridcompare_block,gridcompare_trial,81,38,3072,nexus2_24_tw_0.00.jpg,nexus2_20_tw_-2.00.jpg,nexus2_19_tw_0.00.jpg,nexus2_11_tw_-3.00.jpg,nexus2_7_tw_2.00.jpg,0,-2,0,-3,2,0,102,-1.25,2,50,0,3.25
66240800,gridcompare_block,gridcompare_trial,82,38,1934,nexus2_25_tw_1.00.jpg,nexus2_15_tw_3.00.jpg,nexus2_3_tw_2.00.jpg,nexus2_16_tw_1.00.jpg,nexus2_17_tw_0.00.jpg,1,3,2,1,0,0,102,1.75,0,38,1,1.75
66240800,gridcompare_block,gridcompare_trial,83,50,793,nexus2_4_tw_3.00.jpg,nexus2_18_tw_3.00.jpg,nexus2_1_tw_-1.00.jpg,nexus2_21_tw_1.00.jpg,nexus2_10_tw_1.00.jpg,3,3,-1,1,1,0,102,1.5,1,38,0,0.5
66240800,gridcompare_block,gridcompare_trial,84,38,872,nexus2_14_tw_1.00.jpg,nexus2_23_tw_-1.00.jpg,nexus2_9_tw_-2.00.jpg,nexus2_12_tw_3.00.jpg,nexus2_2_tw_1.00.jpg,1,-1,-2,3,1,0,102,0.25,1,50,0,0.75
66240800,gridcompare_block,gridcompare_trial,85,50,375,nexus2_5_tw_-2.00.jpg,nexus2_22_tw_0.00.jpg,nexus2_6_tw_-3.00.jpg,nexus2_13_tw_2.00.jpg,nexus2_8_tw_1.00.jpg,-2,0,-3,2,1,0,102,-0.75,1,50,1,1.75
66240800,gridcompare_block,gridcompare_trial,86,50,649,nexus2_7_tw_3.00.jpg,nexus2_23_tw_2.00.jpg,nexus2_24_tw_-1.00.jpg,nexus2_18_tw_1.00.jpg,nexus2_1_tw_-3.00.jpg,3,2,-1,1,-3,0,102,1.25,-3,38,0,4.25
66240800,gridcompare_block,gridcompare_trial,87,38,569,nexus2_5_tw_0.00.jpg,nexus2_22_tw_-2.00.jpg,nexus2_14_tw_-2.00.jpg,nexus2_11_tw_-1.00.jpg,nexus2_15_tw_1.00.jpg,0,-2,-2,-1,1,0,102,-1.25,1,50,0,2.25
66240800,gridcompare_block,gridcompare_trial,88,50,4370,nexus2_13_tw_-3.00.jpg,nexus2_25_tw_0.00.jpg,nexus2_21_tw_0.00.jpg,nexus2_10_tw_2.00.jpg,nexus2_17_tw_3.00.jpg,-3,0,0,2,3,0,102,-0.25,3,50,1,3.25
66240800,gridcompare_block,gridcompare_trial,89,50,753,nexus2_19_tw_2.00.jpg,nexus2_12_tw_-1.00.jpg,nexus2_16_tw_-1.00.jpg,nexus2_4_tw_0.00.jpg,nexus2_3_tw_3.00.jpg,2,-1,-1,0,3,0,102,0,3,50,1,3
66240800,gridcompare_block,gridcompare_trial,90,50,752,nexus2_2_tw_0.00.jpg,nexus2_8_tw_3.00.jpg,nexus2_6_tw_1.00.jpg,nexus2_20_tw_-3.00.jpg,nexus2_9_tw_-1.00.jpg,0,3,1,-3,-1,0,102,0.25,-1,38,0,1.25
66240800,gridcompare_block,gridcompare_trial,91,50,784,nexus2_22_tw_-1.00.jpg,nexus2_5_tw_2.00.jpg,nexus2_24_tw_-3.00.jpg,nexus2_17_tw_-1.00.jpg,nexus2_25_tw_3.00.jpg,-1,2,-3,-1,3,0,102,-0.75,3,50,1,3.75
66240800,gridcompare_block,gridcompare_trial,92,50,828,nexus2_9_tw_0.00.jpg,nexus2_23_tw_3.00.jpg,nexus2_6_tw_2.00.jpg,nexus2_13_tw_0.00.jpg,nexus2_16_tw_-3.00.jpg,0,3,2,0,-3,0,102,1.25,-3,38,0,4.25
66240800,gridcompare_block,gridcompare_trial,93,50,1492,nexus2_19_tw_-3.00.jpg,nexus2_2_tw_-2.00.jpg,nexus2_14_tw_3.00.jpg,nexus2_1_tw_-2.00.jpg,nexus2_3_tw_-1.00.jpg,-3,-2,3,-2,-1,1,103,-1,-1,NA,NA,0
66240800,gridcompare_block,gridcompare_trial,94,50,883,nexus2_4_tw_2.00.jpg,nexus2_15_tw_-1.00.jpg,nexus2_11_tw_-2.00.jpg,nexus2_20_tw_0.00.jpg,nexus2_8_tw_-3.00.jpg,2,-1,-2,0,-3,0,103,-0.25,-3,38,0,2.75
66240800,gridcompare_block,gridcompare_trial,95,50,950,nexus2_12_tw_1.00.jpg,nexus2_18_tw_-3.00.jpg,nexus2_7_tw_-3.00.jpg,nexus2_10_tw_3.00.jpg,nexus2_21_tw_3.00.jpg,1,-3,-3,3,3,0,103,-0.5,3,50,1,3.5
66240800,gridcompare_block,gridcompare_trial,96,50,1249,nexus2_25_tw_-1.00.jpg,nexus2_13_tw_-2.00.jpg,nexus2_4_tw_-2.00.jpg,nexus2_24_tw_1.00.jpg,nexus2_23_tw_-2.00.jpg,-1,-2,-2,1,-2,0,103,-1,-2,38,0,1
66240800,gridcompare_block,gridcompare_trial,97,50,2385,nexus2_10_tw_0.00.jpg,nexus2_9_tw_3.00.jpg,nexus2_2_tw_3.00.jpg,nexus2_14_tw_-1.00.jpg,nexus2_7_tw_-2.00.jpg,0,3,3,-1,-2,0,103,1.25,-2,38,0,3.25
66240800,gridcompare_block,gridcompare_trial,98,50,669,nexus2_8_tw_2.00.jpg,nexus2_12_tw_-3.00.jpg,nexus2_11_tw_0.00.jpg,nexus2_21_tw_-1.00.jpg,nexus2_19_tw_1.00.jpg,2,-3,0,-1,1,0,103,-0.5,1,50,1,1.5
66240800,gridcompare_block,gridcompare_trial,99,50,1964,nexus2_1_tw_3.00.jpg,nexus2_16_tw_3.00.jpg,nexus2_20_tw_-1.00.jpg,nexus2_15_tw_-2.00.jpg,nexus2_6_tw_0.00.jpg,3,3,-1,-2,0,0,103,0.75,0,38,0,0.75
66240800,gridcompare_block,gridcompare_trial,100,50,5705,nexus2_5_tw_3.00.jpg,nexus2_22_tw_-3.00.jpg,nexus2_3_tw_-3.00.jpg,nexus2_18_tw_-2.00.jpg,nexus2_17_tw_1.00.jpg,3,-3,-3,-2,1,0,103,-1.25,1,50,1,2.25
66240800,gridcompare_block,gridcompare_trial,101,50,9866,nexus2_15_tw_2.00.jpg,nexus2_19_tw_3.00.jpg,nexus2_12_tw_2.00.jpg,nexus2_7_tw_1.00.jpg,nexus2_25_tw_-2.00.jpg,2,3,2,1,-2,0,103,2,-2,38,0,4
66240800,gridcompare_block,gridcompare_trial,102,38,3036,nexus2_11_tw_3.00.jpg,nexus2_20_tw_1.00.jpg,nexus2_4_tw_-3.00.jpg,nexus2_24_tw_2.00.jpg,nexus2_17_tw_-2.00.jpg,3,1,-3,2,-2,0,103,0.75,-2,38,1,2.75
66240800,gridcompare_block,gridcompare_trial,103,50,2050,nexus2_18_tw_2.00.jpg,nexus2_23_tw_0.00.jpg,nexus2_1_tw_2.00.jpg,nexus2_2_tw_2.00.jpg,nexus2_9_tw_1.00.jpg,2,0,2,2,1,0,103,1.5,1,38,0,0.5
66240800,expt_end,expt_end,1,57,2099,0,0,0,0,0,2,0,2,2,1,0,103,1.5,1,38,0,0.5
774359313,main_instructions,main_instructions1,1,57,10513,0,0,0,0,0,999,999,999,999,999,999,100,999,999,NA,NA,0
774359313,main_instructions,main_instructions2,2,57,13139,0,0,0,0,0,999,999,999,999,999,999,100,999,999,NA,NA,0
774359313,main_instructions,main_instructions3,3,57,5797,0,0,0,0,0,999,999,999,999,999,999,100,999,999,NA,NA,0
774359313,gridcompare_block,gridcompare_trial,1,50,2350,nexus2_7_tw_2.00.jpg,nexus2_16_tw_0.00.jpg,nexus2_13_tw_3.00.jpg,nexus2_14_tw_2.00.jpg,nexus2_21_tw_2.00.jpg,2,0,3,2,2,0,100,1.75,2,50,1,0.25
774359313,gridcompare_block,gridcompare_trial,2,38,2298,nexus2_23_tw_1.00.jpg,nexus2_12_tw_2.00.jpg,nexus2_11_tw_3.00.jpg,nexus2_3_tw_-3.00.jpg,nexus2_20_tw_-2.00.jpg,1,2,3,-3,-2,0,100,0.75,-2,38,1,2.75
774359313,gridcompare_block,gridcompare_trial,3,50,2176,nexus2_8_tw_2.00.jpg,nexus2_2_tw_-3.00.jpg,nexus2_10_tw_-2.00.jpg,nexus2_18_tw_-3.00.jpg,nexus2_19_tw_3.00.jpg,2,-3,-2,-3,3,0,100,-1.5,3,50,1,4.5
774359313,gridcompare_block,gridcompare_trial,4,50,2611,nexus2_6_tw_-1.00.jpg,nexus2_25_tw_3.00.jpg,nexus2_4_tw_-1.00.jpg,nexus2_5_tw_0.00.jpg,nexus2_24_tw_0.00.jpg,-1,3,-1,0,0,0,100,0.25,0,38,0,0.25
774359313,gridcompare_block,gridcompare_trial,5,50,2612,nexus2_22_tw_3.00.jpg,nexus2_9_tw_3.00.jpg,nexus2_17_tw_2.00.jpg,nexus2_1_tw_-3.00.jpg,nexus2_15_tw_1.00.jpg,3,3,2,-3,1,0,100,1.25,1,38,0,0.25
774359313,gridcompare_block,gridcompare_trial,6,38,3462,nexus2_12_tw_3.00.jpg,nexus2_7_tw_-3.00.jpg,nexus2_20_tw_3.00.jpg,nexus2_16_tw_1.00.jpg,nexus2_19_tw_-1.00.jpg,3,-3,3,1,-1,0,100,1,-1,38,1,2
774359313,gridcompare_block,gridcompare_trial,7,38,2718,nexus2_5_tw_-3.00.jpg,nexus2_23_tw_-2.00.jpg,nexus2_22_tw_-3.00.jpg,nexus2_21_tw_-1.00.jpg,nexus2_10_tw_-3.00.jpg,-3,-2,-3,-1,-3,0,100,-2.25,-3,38,1,0.75
774359313,gridcompare_block,gridcompare_trial,8,50,1931,nexus2_6_tw_-3.00.jpg,nexus2_18_tw_0.00.jpg,nexus2_25_tw_0.00.jpg,nexus2_2_tw_-2.00.jpg,nexus2_3_tw_0.00.jpg,-3,0,0,-2,0,0,100,-1.25,0,50,1,1.25
774359313,gridcompare_block,gridcompare_trial,9,50,2583,nexus2_8_tw_-3.00.jpg,nexus2_15_tw_0.00.jpg,nexus2_24_tw_3.00.jpg,nexus2_9_tw_-1.00.jpg,nexus2_11_tw_1.00.jpg,-3,0,3,-1,1,0,100,-0.25,1,50,1,1.25
774359313,gridcompare_block,gridcompare_trial,10,50,1505,nexus2_14_tw_1.00.jpg,nexus2_13_tw_-1.00.jpg,nexus2_17_tw_-3.00.jpg,nexus2_1_tw_0.00.jpg,nexus2_4_tw_1.00.jpg,1,-1,-3,0,1,0,100,-0.75,1,50,1,1.75
774359313,gridcompare_block,gridcompare_trial,11,38,1751,nexus2_9_tw_-3.00.jpg,nexus2_16_tw_-3.00.jpg,nexus2_14_tw_-3.00.jpg,nexus2_13_tw_2.00.jpg,nexus2_20_tw_-1.00.jpg,-3,-3,-3,2,-1,0,100,-1.75,-1,50,0,0.75
774359313,gridcompare_block,gridcompare_trial,12,50,1739,nexus2_7_tw_1.00.jpg,nexus2_11_tw_-2.00.jpg,nexus2_19_tw_-3.00.jpg,nexus2_4_tw_3.00.jpg,nexus2_6_tw_0.00.jpg,1,-2,-3,3,0,0,100,-0.25,0,50,1,0.25
774359313,gridcompare_block,gridcompare_trial,13,38,1367,nexus2_23_tw_-3.00.jpg,nexus2_8_tw_-2.00.jpg,nexus2_5_tw_-2.00.jpg,nexus2_12_tw_-3.00.jpg,nexus2_22_tw_1.00.jpg,-3,-2,-2,-3,1,0,100,-2.5,1,50,0,3.5
774359313,gridcompare_block,gridcompare_trial,14,50,1522,nexus2_17_tw_3.00.jpg,nexus2_10_tw_0.00.jpg,nexus2_2_tw_2.00.jpg,nexus2_25_tw_2.00.jpg,nexus2_21_tw_3.00.jpg,3,0,2,2,3,0,100,1.75,3,50,1,1.25
774359313,gridcompare_block,gridcompare_trial,15,50,3166,nexus2_24_tw_-1.00.jpg,nexus2_15_tw_2.00.jpg,nexus2_1_tw_-1.00.jpg,nexus2_18_tw_3.00.jpg,nexus2_3_tw_-2.00.jpg,-1,2,-1,3,-2,0,100,0.75,-2,38,0,2.75
774359313,gridcompare_block,gridcompare_trial,16,38,1938,nexus2_10_tw_-1.00.jpg,nexus2_23_tw_3.00.jpg,nexus2_12_tw_1.00.jpg,nexus2_17_tw_1.00.jpg,nexus2_18_tw_1.00.jpg,-1,3,1,1,1,1,101,1,1,NA,NA,0
774359313,gridcompare_block,gridcompare_trial,17,50,1502,nexus2_20_tw_2.00.jpg,nexus2_24_tw_2.00.jpg,nexus2_15_tw_-3.00.jpg,nexus2_9_tw_-2.00.jpg,nexus2_13_tw_0.00.jpg,2,2,-3,-2,0,0,101,-0.25,0,50,1,0.25
774359313,gridcompare_block,gridcompare_trial,18,50,1283,nexus2_21_tw_-3.00.jpg,nexus2_19_tw_0.00.jpg,nexus2_1_tw_-2.00.jpg,nexus2_8_tw_3.00.jpg,nexus2_7_tw_-1.00.jpg,-3,0,-2,3,-1,0,101,-0.5,-1,38,0,0.5
774359313,gridcompare_block,gridcompare_trial,19,50,1354,nexus2_2_tw_0.00.jpg,nexus2_11_tw_2.00.jpg,nexus2_4_tw_-2.00.jpg,nexus2_16_tw_2.00.jpg,nexus2_3_tw_3.00.jpg,0,2,-2,2,3,0,101,0.5,3,50,1,2.5
774359313,gridcompare_block,gridcompare_trial,20,50,1101,nexus2_22_tw_0.00.jpg,nexus2_14_tw_0.00.jpg,nexus2_25_tw_-3.00.jpg,nexus2_6_tw_3.00.jpg,nexus2_5_tw_1.00.jpg,0,0,-3,3,1,0,101,0,1,50,1,1
774359313,gridcompare_block,gridcompare_trial,21,38,1619,nexus2_13_tw_-2.00.jpg,nexus2_14_tw_3.00.jpg,nexus2_1_tw_2.00.jpg,nexus2_6_tw_2.00.jpg,nexus2_9_tw_1.00.jpg,-2,3,2,2,1,0,101,1.25,1,38,1,0.25
774359313,gridcompare_block,gridcompare_trial,22,50,1764,nexus2_24_tw_-3.00.jpg,nexus2_17_tw_0.00.jpg,nexus2_4_tw_2.00.jpg,nexus2_3_tw_1.00.jpg,nexus2_7_tw_0.00.jpg,-3,0,2,1,0,1,102,0,0,NA,NA,0
774359313,gridcompare_block,gridcompare_trial,23,50,1407,nexus2_20_tw_0.00.jpg,nexus2_22_tw_2.00.jpg,nexus2_15_tw_-2.00.jpg,nexus2_21_tw_-2.00.jpg,nexus2_5_tw_-1.00.jpg,0,2,-2,-2,-1,0,102,-0.5,-1,38,0,0.5
774359313,gridcompare_block,gridcompare_trial,24,50,1009,nexus2_11_tw_-3.00.jpg,nexus2_10_tw_3.00.jpg,nexus2_25_tw_1.00.jpg,nexus2_23_tw_2.00.jpg,nexus2_18_tw_2.00.jpg,-3,3,1,2,2,0,102,0.75,2,50,1,1.25
774359313,gridcompare_block,gridcompare_trial,25,50,1187,nexus2_19_tw_-2.00.jpg,nexus2_16_tw_3.00.jpg,nexus2_12_tw_0.00.jpg,nexus2_2_tw_1.00.jpg,nexus2_8_tw_1.00.jpg,-2,3,0,1,1,0,102,0.5,1,50,1,0.5
774359313,gridcompare_block,gridcompare_trial,26,50,2461,nexus2_23_tw_-1.00.jpg,nexus2_12_tw_-2.00.jpg,nexus2_22_tw_-1.00.jpg,nexus2_1_tw_1.00.jpg,nexus2_2_tw_3.00.jpg,-1,-2,-1,1,3,0,102,-0.75,3,50,1,3.75
774359313,gridcompare_block,gridcompare_trial,27,38,956,nexus2_11_tw_0.00.jpg,nexus2_15_tw_-1.00.jpg,nexus2_25_tw_-2.00.jpg,nexus2_24_tw_1.00.jpg,nexus2_20_tw_-3.00.jpg,0,-1,-2,1,-3,0,102,-0.5,-3,38,1,2.5
774359313,gridcompare_block,gridcompare_trial,28,38,928,nexus2_13_tw_-3.00.jpg,nexus2_8_tw_-1.00.jpg,nexus2_16_tw_-1.00.jpg,nexus2_9_tw_0.00.jpg,nexus2_18_tw_-2.00.jpg,-3,-1,-1,0,-2,0,102,-1.25,-2,38,1,0.75
774359313,gridcompare_block,gridcompare_trial,29,50,1133,nexus2_21_tw_0.00.jpg,nexus2_6_tw_-2.00.jpg,nexus2_7_tw_3.00.jpg,nexus2_19_tw_1.00.jpg,nexus2_5_tw_3.00.jpg,0,-2,3,1,3,0,102,0.5,3,50,1,2.5
774359313,gridcompare_block,gridcompare_trial,30,50,1665,nexus2_4_tw_0.00.jpg,nexus2_10_tw_2.00.jpg,nexus2_14_tw_-1.00.jpg,nexus2_17_tw_-2.00.jpg,nexus2_3_tw_-1.00.jpg,0,2,-1,-2,-1,0,102,-0.25,-1,38,0,0.75
774359313,gridcompare_block,gridcompare_trial,31,50,976,nexus2_8_tw_0.00.jpg,nexus2_21_tw_1.00.jpg,nexus2_16_tw_-2.00.jpg,nexus2_20_tw_1.00.jpg,nexus2_10_tw_1.00.jpg,0,1,-2,1,1,0,102,0,1,50,1,1
774359313,gridcompare_block,gridcompare_trial,32,50,1243,nexus2_24_tw_-2.00.jpg,nexus2_14_tw_-2.00.jpg,nexus2_1_tw_3.00.jpg,nexus2_15_tw_3.00.jpg,nexus2_6_tw_1.00.jpg,-2,-2,3,3,1,0,102,0.5,1,50,1,0.5
774359313,gridcompare_block,gridcompare_trial,33,38,1275,nexus2_23_tw_0.00.jpg,nexus2_4_tw_-3.00.jpg,nexus2_18_tw_-1.00.jpg,nexus2_7_tw_-2.00.jpg,nexus2_22_tw_-2.00.jpg,0,-3,-1,-2,-2,0,102,-1.5,-2,38,1,0.5
774359313,gridcompare_block,gridcompare_trial,34,50,2834,nexus2_11_tw_-1.00.jpg,nexus2_19_tw_2.00.jpg,nexus2_9_tw_2.00.jpg,nexus2_17_tw_-1.00.jpg,nexus2_12_tw_-1.00.jpg,-1,2,2,-1,-1,0,102,0.5,-1,38,0,1.5
774359313,gridcompare_block,gridcompare_trial,35,38,1554,nexus2_5_tw_2.00.jpg,nexus2_3_tw_2.00.jpg,nexus2_2_tw_-1.00.jpg,nexus2_25_tw_-1.00.jpg,nexus2_13_tw_1.00.jpg,2,2,-1,-1,1,0,102,0.5,1,50,0,0.5
774359313,gridcompare_block,gridcompare_trial,36,38,1510,nexus2_11_tw_-3.00.jpg,nexus2_18_tw_-3.00.jpg,nexus2_2_tw_0.00.jpg,nexus2_24_tw_2.00.jpg,nexus2_7_tw_-2.00.jpg,-3,-3,0,2,-2,0,102,-1,-2,38,1,1
774359313,gridcompare_block,gridcompare_trial,37,38,1644,nexus2_19_tw_-3.00.jpg,nexus2_12_tw_2.00.jpg,nexus2_21_tw_3.00.jpg,nexus2_1_tw_0.00.jpg,nexus2_14_tw_-3.00.jpg,-3,2,3,0,-3,0,102,0.5,-3,38,1,3.5
774359313,gridcompare_block,gridcompare_trial,38,50,1132,nexus2_13_tw_1.00.jpg,nexus2_3_tw_-1.00.jpg,nexus2_6_tw_-2.00.jpg,nexus2_5_tw_1.00.jpg,nexus2_8_tw_1.00.jpg,1,-1,-2,1,1,0,102,-0.25,1,50,1,1.25
774359313,gridcompare_block,gridcompare_trial,39,50,824,nexus2_25_tw_0.00.jpg,nexus2_15_tw_0.00.jpg,nexus2_16_tw_-1.00.jpg,nexus2_20_tw_-2.00.jpg,nexus2_4_tw_1.00.jpg,0,0,-1,-2,1,0,102,-0.75,1,50,1,1.75
774359313,gridcompare_block,gridcompare_trial,40,50,985,nexus2_17_tw_3.00.jpg,nexus2_22_tw_1.00.jpg,nexus2_9_tw_1.00.jpg,nexus2_10_tw_-1.00.jpg,nexus2_23_tw_2.00.jpg,3,1,1,-1,2,0,102,1,2,50,1,1
774359313,gridcompare_block,gridcompare_trial,41,50,971,nexus2_5_tw_2.00.jpg,nexus2_25_tw_-1.00.jpg,nexus2_16_tw_1.00.jpg,nexus2_3_tw_-2.00.jpg,nexus2_8_tw_2.00.jpg,2,-1,1,-2,2,0,102,0,2,50,1,2
774359313,gridcompare_block,gridcompare_trial,42,50,1070,nexus2_9_tw_0.00.jpg,nexus2_24_tw_-1.00.jpg,nexus2_19_tw_-2.00.jpg,nexus2_10_tw_-2.00.jpg,nexus2_14_tw_0.00.jpg,0,-1,-2,-2,0,0,102,-1.25,0,50,1,1.25
774359313,gridcompare_block,gridcompare_trial,43,50,773,nexus2_20_tw_-1.00.jpg,nexus2_21_tw_-1.00.jpg,nexus2_22_tw_-3.00.jpg,nexus2_4_tw_2.00.jpg,nexus2_7_tw_0.00.jpg,-1,-1,-3,2,0,0,102,-0.75,0,50,1,0.75
774359313,gridcompare_block,gridcompare_trial,44,50,1000,nexus2_13_tw_-2.00.jpg,nexus2_1_tw_-2.00.jpg,nexus2_15_tw_-3.00.jpg,nexus2_17_tw_-3.00.jpg,nexus2_2_tw_3.00.jpg,-2,-2,-3,-3,3,0,102,-2.5,3,50,1,5.5
774359313,gridcompare_block,gridcompare_trial,45,50,713,nexus2_23_tw_-2.00.jpg,nexus2_11_tw_0.00.jpg,nexus2_6_tw_3.00.jpg,nexus2_12_tw_-3.00.jpg,nexus2_18_tw_2.00.jpg,-2,0,3,-3,2,0,102,-0.5,2,50,1,2.5
774359313,gridcompare_block,gridcompare_trial,46,50,927,nexus2_25_tw_3.00.jpg,nexus2_1_tw_2.00.jpg,nexus2_3_tw_0.00.jpg,nexus2_22_tw_-1.00.jpg,nexus2_15_tw_2.00.jpg,3,2,0,-1,2,0,102,1,2,50,1,1
774359313,gridcompare_block,gridcompare_trial,47,50,852,nexus2_12_tw_-2.00.jpg,nexus2_8_tw_-3.00.jpg,nexus2_24_tw_0.00.jpg,nexus2_7_tw_-1.00.jpg,nexus2_10_tw_2.00.jpg,-2,-3,0,-1,2,0,102,-1.5,2,50,1,3.5
774359313,gridcompare_block,gridcompare_trial,48,50,1044,nexus2_18_tw_3.00.jpg,nexus2_13_tw_0.00.jpg,nexus2_14_tw_-1.00.jpg,nexus2_9_tw_-3.00.jpg,nexus2_6_tw_1.00.jpg,3,0,-1,-3,1,0,102,-0.25,1,50,1,1.25
774359313,gridcompare_block,gridcompare_trial,49,50,924,nexus2_16_tw_0.00.jpg,nexus2_23_tw_0.00.jpg,nexus2_2_tw_1.00.jpg,nexus2_4_tw_-1.00.jpg,nexus2_19_tw_3.00.jpg,0,0,1,-1,3,0,102,0,3,50,1,3
774359313,gridcompare_block,gridcompare_trial,50,38,1281,nexus2_17_tw_-2.00.jpg,nexus2_20_tw_0.00.jpg,nexus2_11_tw_-1.00.jpg,nexus2_21_tw_0.00.jpg,nexus2_5_tw_-3.00.jpg,-2,0,-1,0,-3,0,102,-0.75,-3,38,1,2.25
774359313,gridcompare_block,gridcompare_trial,51,38,1471,nexus2_24_tw_3.00.jpg,nexus2_16_tw_2.00.jpg,nexus2_6_tw_0.00.jpg,nexus2_17_tw_-1.00.jpg,nexus2_13_tw_-1.00.jpg,3,2,0,-1,-1,0,102,1,-1,38,1,2
774359313,gridcompare_block,gridcompare_trial,52,50,1102,nexus2_14_tw_-2.00.jpg,nexus2_20_tw_2.00.jpg,nexus2_15_tw_-1.00.jpg,nexus2_3_tw_-3.00.jpg,nexus2_21_tw_-2.00.jpg,-2,2,-1,-3,-2,0,102,-1,-2,38,0,1
774359313,gridcompare_block,gridcompare_trial,53,38,956,nexus2_19_tw_1.00.jpg,nexus2_12_tw_-1.00.jpg,nexus2_8_tw_-2.00.jpg,nexus2_23_tw_3.00.jpg,nexus2_2_tw_-3.00.jpg,1,-1,-2,3,-3,0,102,0.25,-3,38,1,3.25
774359313,gridcompare_block,gridcompare_trial,54,38,1631,nexus2_25_tw_2.00.jpg,nexus2_1_tw_1.00.jpg,nexus2_5_tw_-1.00.jpg,nexus2_7_tw_3.00.jpg,nexus2_22_tw_2.00.jpg,2,1,-1,3,2,0,102,1.25,2,50,0,0.75
774359313,gridcompare_block,gridcompare_trial,55,38,1440,nexus2_4_tw_-3.00.jpg,nexus2_10_tw_1.00.jpg,nexus2_11_tw_3.00.jpg,nexus2_18_tw_0.00.jpg,nexus2_9_tw_-2.00.jpg,-3,1,3,0,-2,0,102,0.25,-2,38,1,2.25
774359313,gridcompare_block,gridcompare_trial,56,38,808,nexus2_15_tw_3.00.jpg,nexus2_21_tw_1.00.jpg,nexus2_8_tw_3.00.jpg,nexus2_6_tw_-1.00.jpg,nexus2_1_tw_-3.00.jpg,3,1,3,-1,-3,0,102,1.5,-3,38,1,4.5
774359313,gridcompare_block,gridcompare_trial,57,50,1122,nexus2_7_tw_2.00.jpg,nexus2_12_tw_0.00.jpg,nexus2_11_tw_1.00.jpg,nexus2_24_tw_1.00.jpg,nexus2_3_tw_1.00.jpg,2,0,1,1,1,1,103,1,1,NA,NA,0
774359313,gridcompare_block,gridcompare_trial,58,38,846,nexus2_16_tw_-2.00.jpg,nexus2_22_tw_3.00.jpg,nexus2_5_tw_3.00.jpg,nexus2_14_tw_2.00.jpg,nexus2_10_tw_-3.00.jpg,-2,3,3,2,-3,0,103,1.5,-3,38,1,4.5
774359313,gridcompare_block,gridcompare_trial,59,50,943,nexus2_9_tw_2.00.jpg,nexus2_23_tw_-3.00.jpg,nexus2_19_tw_-1.00.jpg,nexus2_2_tw_-2.00.jpg,nexus2_25_tw_1.00.jpg,2,-3,-1,-2,1,0,103,-1,1,50,1,2
774359313,gridcompare_block,gridcompare_trial,60,50,963,nexus2_18_tw_-2.00.jpg,nexus2_20_tw_-3.00.jpg,nexus2_13_tw_3.00.jpg,nexus2_4_tw_3.00.jpg,nexus2_17_tw_1.00.jpg,-2,-3,3,3,1,0,103,0.25,1,50,1,0.75
774359313,gridcompare_block,gridcompare_trial,61,50,790,nexus2_9_tw_3.00.jpg,nexus2_7_tw_-3.00.jpg,nexus2_25_tw_-3.00.jpg,nexus2_11_tw_-2.00.jpg,nexus2_10_tw_3.00.jpg,3,-3,-3,-2,3,0,103,-1.25,3,50,1,4.25
774359313,gridcompare_block,gridcompare_trial,62,50,1105,nexus2_12_tw_1.00.jpg,nexus2_2_tw_2.00.jpg,nexus2_20_tw_3.00.jpg,nexus2_1_tw_-1.00.jpg,nexus2_21_tw_2.00.jpg,1,2,3,-1,2,0,103,1.25,2,50,1,0.75
774359313,gridcompare_block,gridcompare_trial,63,38,1062,nexus2_15_tw_1.00.jpg,nexus2_3_tw_3.00.jpg,nexus2_13_tw_2.00.jpg,nexus2_24_tw_-3.00.jpg,nexus2_22_tw_-2.00.jpg,1,3,2,-3,-2,0,103,0.75,-2,38,1,2.75
774359313,gridcompare_block,gridcompare_trial,64,38,1430,nexus2_14_tw_3.00.jpg,nexus2_16_tw_3.00.jpg,nexus2_23_tw_-1.00.jpg,nexus2_8_tw_0.00.jpg,nexus2_18_tw_-1.00.jpg,3,3,-1,0,-1,0,103,1.25,-1,38,1,2.25
774359313,gridcompare_block,gridcompare_trial,65,50,823,nexus2_17_tw_2.00.jpg,nexus2_19_tw_2.00.jpg,nexus2_4_tw_0.00.jpg,nexus2_5_tw_-2.00.jpg,nexus2_6_tw_2.00.jpg,2,2,0,-2,2,0,103,0.5,2,50,1,1.5
774359313,gridcompare_block,gridcompare_trial,66,50,888,nexus2_12_tw_3.00.jpg,nexus2_4_tw_-2.00.jpg,nexus2_13_tw_-3.00.jpg,nexus2_2_tw_-1.00.jpg,nexus2_5_tw_0.00.jpg,3,-2,-3,-1,0,0,103,-0.75,0,50,1,0.75
774359313,gridcompare_block,gridcompare_trial,67,50,958,nexus2_9_tw_-1.00.jpg,nexus2_6_tw_-3.00.jpg,nexus2_7_tw_1.00.jpg,nexus2_8_tw_-1.00.jpg,nexus2_11_tw_2.00.jpg,-1,-3,1,-1,2,0,103,-1,2,50,1,3
774359313,gridcompare_block,gridcompare_trial,68,38,985,nexus2_1_tw_3.00.jpg,nexus2_10_tw_0.00.jpg,nexus2_17_tw_0.00.jpg,nexus2_18_tw_1.00.jpg,nexus2_20_tw_1.00.jpg,3,0,0,1,1,1,104,1,1,NA,NA,0
774359313,gridcompare_block,gridcompare_trial,69,38,1212,nexus2_3_tw_2.00.jpg,nexus2_22_tw_0.00.jpg,nexus2_24_tw_-2.00.jpg,nexus2_21_tw_-3.00.jpg,nexus2_15_tw_-2.00.jpg,2,0,-2,-3,-2,0,104,-0.75,-2,38,1,1.25
774359313,gridcompare_block,gridcompare_trial,70,38,1589,nexus2_16_tw_-3.00.jpg,nexus2_19_tw_0.00.jpg,nexus2_23_tw_1.00.jpg,nexus2_14_tw_1.00.jpg,nexus2_25_tw_-2.00.jpg,-3,0,1,1,-2,0,104,-0.25,-2,38,1,1.75
774359313,gridcompare_block,gridcompare_trial,71,38,1175,nexus2_2_tw_3.00.jpg,nexus2_7_tw_-1.00.jpg,nexus2_11_tw_0.00.jpg,nexus2_17_tw_-2.00.jpg,nexus2_19_tw_-2.00.jpg,3,-1,0,-2,-2,0,104,0,-2,38,1,2
774359313,gridcompare_block,gridcompare_trial,72,50,842,nexus2_23_tw_1.00.jpg,nexus2_15_tw_-2.00.jpg,nexus2_25_tw_0.00.jpg,nexus2_8_tw_-3.00.jpg,nexus2_13_tw_0.00.jpg,1,-2,0,-3,0,0,104,-1,0,50,1,1
774359313,gridcompare_block,gridcompare_trial,73,38,1027,nexus2_14_tw_0.00.jpg,nexus2_24_tw_3.00.jpg,nexus2_1_tw_-2.00.jpg,nexus2_3_tw_-3.00.jpg,nexus2_12_tw_-1.00.jpg,0,3,-2,-3,-1,0,104,-0.5,-1,38,1,0.5
774359313,gridcompare_block,gridcompare_trial,74,50,1131,nexus2_18_tw_2.00.jpg,nexus2_21_tw_0.00.jpg,nexus2_22_tw_2.00.jpg,nexus2_6_tw_-2.00.jpg,nexus2_4_tw_1.00.jpg,2,0,2,-2,1,0,104,0.5,1,50,1,0.5
774359313,gridcompare_block,gridcompare_trial,75,50,1184,nexus2_16_tw_-1.00.jpg,nexus2_9_tw_2.00.jpg,nexus2_10_tw_2.00.jpg,nexus2_20_tw_3.00.jpg,nexus2_5_tw_0.00.jpg,-1,2,2,3,0,0,104,1.5,0,38,0,1.5
774359313,gridcompare_block,gridcompare_trial,76,38,1298,nexus2_18_tw_-2.00.jpg,nexus2_15_tw_0.00.jpg,nexus2_2_tw_2.00.jpg,nexus2_13_tw_-3.00.jpg,nexus2_7_tw_-3.00.jpg,-2,0,2,-3,-3,0,104,-0.75,-3,38,1,2.25
774359313,gridcompare_block,gridcompare_trial,77,38,1359,nexus2_21_tw_1.00.jpg,nexus2_1_tw_0.00.jpg,nexus2_23_tw_-1.00.jpg,nexus2_8_tw_-2.00.jpg,nexus2_22_tw_-1.00.jpg,1,0,-1,-2,-1,0,104,-0.5,-1,38,1,0.5
774359313,gridcompare_block,gridcompare_trial,78,38,1235,nexus2_10_tw_-1.00.jpg,nexus2_11_tw_1.00.jpg,nexus2_14_tw_-2.00.jpg,nexus2_4_tw_-2.00.jpg,nexus2_12_tw_-3.00.jpg,-1,1,-2,-2,-3,0,104,-1,-3,38,1,2
774359313,gridcompare_block,gridcompare_trial,79,50,1211,nexus2_16_tw_-3.00.jpg,nexus2_5_tw_1.00.jpg,nexus2_19_tw_2.00.jpg,nexus2_25_tw_-3.00.jpg,nexus2_24_tw_-2.00.jpg,-3,1,2,-3,-2,0,104,-0.75,-2,38,0,1.25
774359313,gridcompare_block,gridcompare_trial,80,50,2173,nexus2_6_tw_0.00.jpg,nexus2_9_tw_3.00.jpg,nexus2_17_tw_-3.00.jpg,nexus2_3_tw_1.00.jpg,nexus2_20_tw_0.00.jpg,0,3,-3,1,0,0,104,0.25,0,38,0,0.25
774359313,gridcompare_block,gridcompare_trial,81,38,1136,nexus2_19_tw_-3.00.jpg,nexus2_24_tw_-1.00.jpg,nexus2_25_tw_3.00.jpg,nexus2_2_tw_0.00.jpg,nexus2_11_tw_-2.00.jpg,-3,-1,3,0,-2,0,104,-0.25,-2,38,1,1.75
774359313,gridcompare_block,gridcompare_trial,82,50,1196,nexus2_20_tw_2.00.jpg,nexus2_15_tw_3.00.jpg,nexus2_3_tw_-2.00.jpg,nexus2_23_tw_-2.00.jpg,nexus2_13_tw_2.00.jpg,2,3,-2,-2,2,0,104,0.25,2,50,1,1.75
774359313,gridcompare_block,gridcompare_trial,83,50,1102,nexus2_9_tw_-3.00.jpg,nexus2_1_tw_2.00.jpg,nexus2_14_tw_3.00.jpg,nexus2_17_tw_1.00.jpg,nexus2_10_tw_3.00.jpg,-3,2,3,1,3,0,104,0.75,3,50,1,2.25
774359313,gridcompare_block,gridcompare_trial,84,50,1052,nexus2_22_tw_0.00.jpg,nexus2_4_tw_0.00.jpg,nexus2_5_tw_-1.00.jpg,nexus2_16_tw_-2.00.jpg,nexus2_12_tw_0.00.jpg,0,0,-1,-2,0,0,104,-0.75,0,50,1,0.75
774359313,gridcompare_block,gridcompare_trial,85,50,1164,nexus2_7_tw_3.00.jpg,nexus2_6_tw_-1.00.jpg,nexus2_21_tw_-3.00.jpg,nexus2_18_tw_1.00.jpg,nexus2_8_tw_3.00.jpg,3,-1,-3,1,3,0,104,0,3,50,1,3
774359313,gridcompare_block,gridcompare_trial,86,38,1271,nexus2_8_tw_1.00.jpg,nexus2_16_tw_1.00.jpg,nexus2_18_tw_3.00.jpg,nexus2_19_tw_3.00.jpg,nexus2_12_tw_-2.00.jpg,1,1,3,3,-2,0,104,2,-2,38,1,4
774359313,gridcompare_block,gridcompare_trial,87,50,846,nexus2_2_tw_-1.00.jpg,nexus2_25_tw_-2.00.jpg,nexus2_15_tw_-3.00.jpg,nexus2_21_tw_2.00.jpg,nexus2_17_tw_2.00.jpg,-1,-2,-3,2,2,0,104,-1,2,50,1,3
774359313,gridcompare_block,gridcompare_trial,88,50,1046,nexus2_6_tw_-3.00.jpg,nexus2_10_tw_-3.00.jpg,nexus2_5_tw_-2.00.jpg,nexus2_14_tw_-1.00.jpg,nexus2_1_tw_1.00.jpg,-3,-3,-2,-1,1,0,104,-2.25,1,50,1,3.25
774359313,gridcompare_block,gridcompare_trial,89,38,1278,nexus2_13_tw_-1.00.jpg,nexus2_7_tw_2.00.jpg,nexus2_23_tw_0.00.jpg,nexus2_22_tw_1.00.jpg,nexus2_4_tw_-3.00.jpg,-1,2,0,1,-3,0,104,0.5,-3,38,1,3.5
774359313,gridcompare_block,gridcompare_trial,90,50,1078,nexus2_9_tw_-1.00.jpg,nexus2_11_tw_3.00.jpg,nexus2_24_tw_-3.00.jpg,nexus2_20_tw_-2.00.jpg,nexus2_3_tw_3.00.jpg,-1,3,-3,-2,3,0,104,-0.75,3,50,1,3.75
774359313,gridcompare_block,gridcompare_trial,91,50,964,nexus2_24_tw_0.00.jpg,nexus2_6_tw_1.00.jpg,nexus2_20_tw_1.00.jpg,nexus2_13_tw_-2.00.jpg,nexus2_7_tw_1.00.jpg,0,1,1,-2,1,0,104,0,1,50,1,1
774359313,gridcompare_block,gridcompare_trial,92,50,1023,nexus2_8_tw_2.00.jpg,nexus2_9_tw_-2.00.jpg,nexus2_14_tw_1.00.jpg,nexus2_4_tw_3.00.jpg,nexus2_23_tw_2.00.jpg,2,-2,1,3,2,0,104,1,2,50,1,1
774359313,gridcompare_block,gridcompare_trial,93,38,1328,nexus2_15_tw_2.00.jpg,nexus2_19_tw_1.00.jpg,nexus2_18_tw_0.00.jpg,nexus2_5_tw_2.00.jpg,nexus2_21_tw_-1.00.jpg,2,1,0,2,-1,0,104,1.25,-1,38,1,2.25
774359313,gridcompare_block,gridcompare_trial,94,50,1013,nexus2_16_tw_3.00.jpg,nexus2_10_tw_1.00.jpg,nexus2_25_tw_1.00.jpg,nexus2_11_tw_-1.00.jpg,nexus2_12_tw_2.00.jpg,3,1,1,-1,2,0,104,1,2,50,1,1
774359313,gridcompare_block,gridcompare_trial,95,50,1023,nexus2_2_tw_-3.00.jpg,nexus2_17_tw_0.00.jpg,nexus2_1_tw_3.00.jpg,nexus2_22_tw_3.00.jpg,nexus2_3_tw_0.00.jpg,-3,0,3,3,0,0,104,0.75,0,38,0,0.75
774359313,gridcompare_block,gridcompare_trial,96,38,975,nexus2_6_tw_3.00.jpg,nexus2_4_tw_2.00.jpg,nexus2_19_tw_-1.00.jpg,nexus2_9_tw_0.00.jpg,nexus2_18_tw_-3.00.jpg,3,2,-1,0,-3,0,104,1,-3,38,1,4
774359313,gridcompare_block,gridcompare_trial,97,50,1114,nexus2_5_tw_-3.00.jpg,nexus2_2_tw_-2.00.jpg,nexus2_13_tw_1.00.jpg,nexus2_12_tw_3.00.jpg,nexus2_3_tw_2.00.jpg,-3,-2,1,3,2,0,104,-0.25,2,50,1,2.25
774359313,gridcompare_block,gridcompare_trial,98,38,1239,nexus2_25_tw_-1.00.jpg,nexus2_7_tw_-2.00.jpg,nexus2_1_tw_-3.00.jpg,nexus2_10_tw_0.00.jpg,nexus2_14_tw_-3.00.jpg,-1,-2,-3,0,-3,0,104,-1.5,-3,38,1,1.5
774359313,gridcompare_block,gridcompare_trial,99,50,1016,nexus2_20_tw_-1.00.jpg,nexus2_16_tw_2.00.jpg,nexus2_11_tw_2.00.jpg,nexus2_17_tw_3.00.jpg,nexus2_23_tw_3.00.jpg,-1,2,2,3,3,0,104,1.5,3,50,1,1.5
774359313,gridcompare_block,gridcompare_trial,100,38,1352,nexus2_24_tw_2.00.jpg,nexus2_22_tw_-3.00.jpg,nexus2_15_tw_-1.00.jpg,nexus2_8_tw_-1.00.jpg,nexus2_21_tw_-2.00.jpg,2,-3,-1,-1,-2,0,104,-0.75,-2,38,1,1.25
774359313,gridcompare_block,gridcompare_trial,101,38,1252,nexus2_8_tw_0.00.jpg,nexus2_9_tw_1.00.jpg,nexus2_17_tw_-1.00.jpg,nexus2_1_tw_-1.00.jpg,nexus2_23_tw_-3.00.jpg,0,1,-1,-1,-3,0,104,-0.25,-3,38,1,2.75
774359313,gridcompare_block,gridcompare_trial,102,50,723,nexus2_24_tw_1.00.jpg,nexus2_21_tw_3.00.jpg,nexus2_2_tw_1.00.jpg,nexus2_3_tw_-1.00.jpg,nexus2_13_tw_3.00.jpg,1,3,1,-1,3,0,104,1,3,50,1,2
774359313,gridcompare_block,gridcompare_trial,103,50,744,nexus2_4_tw_-1.00.jpg,nexus2_7_tw_0.00.jpg,nexus2_18_tw_-1.00.jpg,nexus2_22_tw_-2.00.jpg,nexus2_14_tw_2.00.jpg,-1,0,-1,-2,2,0,104,-1,2,50,1,3
774359313,gridcompare_block,gridcompare_trial,104,50,1021,nexus2_25_tw_2.00.jpg,nexus2_11_tw_-3.00.jpg,nexus2_20_tw_-3.00.jpg,nexus2_10_tw_-2.00.jpg,nexus2_15_tw_1.00.jpg,2,-3,-3,-2,1,0,104,-1.5,1,50,1,2.5
774359313,expt_end,expt_end,1,57,4407,0,0,0,0,0,2,-3,-3,-2,1,0,104,-1.5,1,50,0,2.5
160662809,main_instructions,main_instructions1,1,57,15686,0,0,0,0,0,999,999,999,999,999,999,100,999,999,NA,NA,0
160662809,main_instructions,main_instructions2,2,57,77569,0,0,0,0,0,999,999,999,999,999,999,100,999,999,NA,NA,0
160662809,main_instructions,main_instructions3,3,57,12696,0,0,0,0,0,999,999,999,999,999,999,100,999,999,NA,NA,0
160662809,gridcompare_block,gridcompare_trial,1,50,7859,nexus2_19_tw_-1.00.jpg,nexus2_1_tw_-3.00.jpg,nexus2_7_tw_-1.00.jpg,nexus2_15_tw_-3.00.jpg,nexus2_24_tw_-3.00.jpg,-1,-3,-1,-3,-3,0,100,-2,-3,38,0,1
160662809,gridcompare_block,gridcompare_trial,2,38,2727,nexus2_17_tw_0.00.jpg,nexus2_25_tw_3.00.jpg,nexus2_14_tw_-1.00.jpg,nexus2_22_tw_1.00.jpg,nexus2_6_tw_1.00.jpg,0,3,-1,1,1,0,100,0.75,1,50,0,0.25
160662809,gridcompare_block,gridcompare_trial,3,50,1745,nexus2_13_tw_-2.00.jpg,nexus2_8_tw_-2.00.jpg,nexus2_20_tw_0.00.jpg,nexus2_11_tw_-1.00.jpg,nexus2_3_tw_0.00.jpg,-2,-2,0,-1,0,0,100,-1.25,0,50,1,1.25
160662809,gridcompare_block,gridcompare_trial,4,38,1605,nexus2_9_tw_1.00.jpg,nexus2_4_tw_-2.00.jpg,nexus2_21_tw_3.00.jpg,nexus2_18_tw_0.00.jpg,nexus2_23_tw_-2.00.jpg,1,-2,3,0,-2,0,100,0.5,-2,38,1,2.5
160662809,gridcompare_block,gridcompare_trial,5,50,2016,nexus2_2_tw_3.00.jpg,nexus2_16_tw_-1.00.jpg,nexus2_12_tw_-2.00.jpg,nexus2_5_tw_-3.00.jpg,nexus2_10_tw_-2.00.jpg,3,-1,-2,-3,-2,0,100,-0.75,-2,38,0,1.25
160662809,gridcompare_block,gridcompare_trial,6,38,2608,nexus2_20_tw_3.00.jpg,nexus2_18_tw_-3.00.jpg,nexus2_22_tw_-1.00.jpg,nexus2_24_tw_3.00.jpg,nexus2_15_tw_1.00.jpg,3,-3,-1,3,1,0,100,0.5,1,50,0,0.5
160662809,gridcompare_block,gridcompare_trial,7,50,1691,nexus2_23_tw_0.00.jpg,nexus2_12_tw_0.00.jpg,nexus2_7_tw_3.00.jpg,nexus2_25_tw_-1.00.jpg,nexus2_3_tw_1.00.jpg,0,0,3,-1,1,0,100,0.5,1,50,1,0.5
160662809,gridcompare_block,gridcompare_trial,8,50,1823,nexus2_6_tw_3.00.jpg,nexus2_4_tw_1.00.jpg,nexus2_11_tw_0.00.jpg,nexus2_1_tw_0.00.jpg,nexus2_21_tw_2.00.jpg,3,1,0,0,2,0,100,1,2,50,1,1
160662809,gridcompare_block,gridcompare_trial,9,38,1912,nexus2_9_tw_2.00.jpg,nexus2_5_tw_-2.00.jpg,nexus2_16_tw_-3.00.jpg,nexus2_13_tw_1.00.jpg,nexus2_2_tw_-3.00.jpg,2,-2,-3,1,-3,0,100,-0.5,-3,38,1,2.5
160662809,gridcompare_block,gridcompare_trial,10,50,1637,nexus2_14_tw_0.00.jpg,nexus2_17_tw_-1.00.jpg,nexus2_10_tw_3.00.jpg,nexus2_19_tw_1.00.jpg,nexus2_8_tw_2.00.jpg,0,-1,3,1,2,0,100,0.75,2,50,1,1.25
160662809,gridcompare_block,gridcompare_trial,11,38,1320,nexus2_22_tw_3.00.jpg,nexus2_1_tw_-2.00.jpg,nexus2_8_tw_3.00.jpg,nexus2_21_tw_-3.00.jpg,nexus2_12_tw_2.00.jpg,3,-2,3,-3,2,0,100,0.25,2,50,0,1.75
160662809,gridcompare_block,gridcompare_trial,12,38,1334,nexus2_23_tw_-1.00.jpg,nexus2_2_tw_-2.00.jpg,nexus2_15_tw_2.00.jpg,nexus2_3_tw_-1.00.jpg,nexus2_9_tw_-1.00.jpg,-1,-2,2,-1,-1,0,100,-0.5,-1,38,1,0.5
160662809,gridcompare_block,gridcompare_trial,13,50,1305,nexus2_18_tw_1.00.jpg,nexus2_14_tw_1.00.jpg,nexus2_13_tw_2.00.jpg,nexus2_19_tw_-3.00.jpg,nexus2_5_tw_3.00.jpg,1,1,2,-3,3,0,100,0.25,3,50,1,2.75
160662809,gridcompare_block,gridcompare_trial,14,38,3125,nexus2_4_tw_3.00.jpg,nexus2_24_tw_-1.00.jpg,nexus2_11_tw_3.00.jpg,nexus2_7_tw_-2.00.jpg,nexus2_20_tw_1.00.jpg,3,-1,3,-2,1,0,100,0.75,1,50,0,0.25
160662809,gridcompare_block,gridcompare_trial,15,38,782,nexus2_16_tw_-2.00.jpg,nexus2_10_tw_1.00.jpg,nexus2_25_tw_2.00.jpg,nexus2_17_tw_2.00.jpg,nexus2_6_tw_-3.00.jpg,-2,1,2,2,-3,0,100,0.75,-3,38,1,3.75
160662809,gridcompare_block,gridcompare_trial,16,50,931,nexus2_19_tw_0.00.jpg,nexus2_1_tw_3.00.jpg,nexus2_14_tw_3.00.jpg,nexus2_15_tw_0.00.jpg,nexus2_7_tw_1.00.jpg,0,3,3,0,1,0,100,1.5,1,38,0,0.5
160662809,gridcompare_block,gridcompare_trial,17,50,2714,nexus2_21_tw_1.00.jpg,nexus2_12_tw_1.00.jpg,nexus2_3_tw_3.00.jpg,nexus2_18_tw_3.00.jpg,nexus2_11_tw_2.00.jpg,1,1,3,3,2,1,101,2,2,NA,NA,0
160662809,gridcompare_block,gridcompare_trial,18,38,1160,nexus2_5_tw_1.00.jpg,nexus2_22_tw_-2.00.jpg,nexus2_6_tw_-2.00.jpg,nexus2_2_tw_0.00.jpg,nexus2_20_tw_-1.00.jpg,1,-2,-2,0,-1,0,101,-0.75,-1,38,1,0.25
160662809,gridcompare_block,gridcompare_trial,19,50,1472,nexus2_13_tw_3.00.jpg,nexus2_17_tw_3.00.jpg,nexus2_24_tw_2.00.jpg,nexus2_8_tw_-1.00.jpg,nexus2_25_tw_0.00.jpg,3,3,2,-1,0,0,101,1.75,0,38,0,1.75
160662809,gridcompare_block,gridcompare_trial,20,38,1327,nexus2_23_tw_1.00.jpg,nexus2_10_tw_-3.00.jpg,nexus2_9_tw_3.00.jpg,nexus2_16_tw_2.00.jpg,nexus2_4_tw_-3.00.jpg,1,-3,3,2,-3,0,101,0.75,-3,38,1,3.75
160662809,gridcompare_block,gridcompare_trial,21,50,2389,nexus2_4_tw_-1.00.jpg,nexus2_10_tw_-1.00.jpg,nexus2_1_tw_1.00.jpg,nexus2_9_tw_0.00.jpg,nexus2_25_tw_-2.00.jpg,-1,-1,1,0,-2,0,101,-0.25,-2,38,0,1.75
160662809,gridcompare_block,gridcompare_trial,22,38,1588,nexus2_11_tw_-2.00.jpg,nexus2_19_tw_3.00.jpg,nexus2_13_tw_-3.00.jpg,nexus2_3_tw_2.00.jpg,nexus2_23_tw_-3.00.jpg,-2,3,-3,2,-3,0,101,0,-3,38,1,3
160662809,gridcompare_block,gridcompare_trial,23,50,1507,nexus2_2_tw_2.00.jpg,nexus2_20_tw_-3.00.jpg,nexus2_14_tw_2.00.jpg,nexus2_8_tw_-3.00.jpg,nexus2_7_tw_0.00.jpg,2,-3,2,-3,0,0,101,-0.5,0,50,1,0.5
160662809,gridcompare_block,gridcompare_trial,24,50,1447,nexus2_21_tw_-2.00.jpg,nexus2_24_tw_-2.00.jpg,nexus2_15_tw_3.00.jpg,nexus2_18_tw_2.00.jpg,nexus2_5_tw_0.00.jpg,-2,-2,3,2,0,0,101,0.25,0,38,0,0.25
160662809,gridcompare_block,gridcompare_trial,25,50,1249,nexus2_6_tw_-1.00.jpg,nexus2_22_tw_2.00.jpg,nexus2_17_tw_1.00.jpg,nexus2_16_tw_3.00.jpg,nexus2_12_tw_3.00.jpg,-1,2,1,3,3,0,101,1.25,3,50,1,1.75
160662809,gridcompare_block,gridcompare_trial,26,50,1408,nexus2_19_tw_2.00.jpg,nexus2_7_tw_2.00.jpg,nexus2_22_tw_0.00.jpg,nexus2_9_tw_-3.00.jpg,nexus2_23_tw_3.00.jpg,2,2,0,-3,3,0,101,0.25,3,50,1,2.75
160662809,gridcompare_block,gridcompare_trial,27,38,682,nexus2_25_tw_1.00.jpg,nexus2_17_tw_-2.00.jpg,nexus2_3_tw_-2.00.jpg,nexus2_1_tw_2.00.jpg,nexus2_12_tw_-3.00.jpg,1,-2,-2,2,-3,0,101,-0.25,-3,38,1,2.75
160662809,gridcompare_block,gridcompare_trial,28,38,833,nexus2_21_tw_0.00.jpg,nexus2_8_tw_0.00.jpg,nexus2_5_tw_-1.00.jpg,nexus2_14_tw_-3.00.jpg,nexus2_15_tw_-1.00.jpg,0,0,-1,-3,-1,1,102,-1,-1,NA,NA,0
160662809,gridcompare_block,gridcompare_trial,29,38,2072,nexus2_11_tw_-3.00.jpg,nexus2_16_tw_0.00.jpg,nexus2_2_tw_-1.00.jpg,nexus2_4_tw_0.00.jpg,nexus2_18_tw_-2.00.jpg,-3,0,-1,0,-2,0,102,-1,-2,38,1,1
160662809,gridcompare_block,gridcompare_trial,30,50,1289,nexus2_6_tw_2.00.jpg,nexus2_10_tw_2.00.jpg,nexus2_20_tw_2.00.jpg,nexus2_13_tw_0.00.jpg,nexus2_24_tw_1.00.jpg,2,2,2,0,1,0,102,1.5,1,38,0,0.5
160662809,gridcompare_block,gridcompare_trial,31,50,1384,nexus2_17_tw_-3.00.jpg,nexus2_15_tw_-2.00.jpg,nexus2_16_tw_1.00.jpg,nexus2_21_tw_-1.00.jpg,nexus2_6_tw_0.00.jpg,-3,-2,1,-1,0,0,102,-1.25,0,50,1,1.25
160662809,gridcompare_block,gridcompare_trial,32,38,1604,nexus2_12_tw_-1.00.jpg,nexus2_8_tw_1.00.jpg,nexus2_2_tw_1.00.jpg,nexus2_18_tw_-1.00.jpg,nexus2_1_tw_-1.00.jpg,-1,1,1,-1,-1,0,102,0,-1,38,1,1
160662809,gridcompare_block,gridcompare_trial,33,50,1021,nexus2_14_tw_-2.00.jpg,nexus2_5_tw_2.00.jpg,nexus2_7_tw_-3.00.jpg,nexus2_10_tw_0.00.jpg,nexus2_24_tw_0.00.jpg,-2,2,-3,0,0,0,102,-0.75,0,50,1,0.75
160662809,gridcompare_block,gridcompare_trial,34,50,2101,nexus2_23_tw_2.00.jpg,nexus2_11_tw_1.00.jpg,nexus2_3_tw_-3.00.jpg,nexus2_20_tw_-2.00.jpg,nexus2_19_tw_-2.00.jpg,2,1,-3,-2,-2,0,102,-0.5,-2,38,0,1.5
160662809,gridcompare_block,gridcompare_trial,35,50,2196,nexus2_25_tw_-3.00.jpg,nexus2_9_tw_-2.00.jpg,nexus2_22_tw_-3.00.jpg,nexus2_4_tw_2.00.jpg,nexus2_13_tw_-1.00.jpg,-3,-2,-3,2,-1,0,102,-1.5,-1,50,1,0.5
160662809,gridcompare_block,gridcompare_trial,36,50,1702,nexus2_18_tw_-1.00.jpg,nexus2_4_tw_2.00.jpg,nexus2_15_tw_0.00.jpg,nexus2_2_tw_3.00.jpg,nexus2_10_tw_3.00.jpg,-1,2,0,3,3,0,102,1,3,50,1,2
160662809,gridcompare_block,gridcompare_trial,37,38,1510,nexus2_8_tw_3.00.jpg,nexus2_25_tw_-2.00.jpg,nexus2_7_tw_-1.00.jpg,nexus2_17_tw_-1.00.jpg,nexus2_12_tw_-1.00.jpg,3,-2,-1,-1,-1,0,102,-0.25,-1,38,1,0.75
160662809,gridcompare_block,gridcompare_trial,38,50,700,nexus2_22_tw_-1.00.jpg,nexus2_14_tw_3.00.jpg,nexus2_3_tw_-2.00.jpg,nexus2_1_tw_2.00.jpg,nexus2_13_tw_2.00.jpg,-1,3,-2,2,2,0,102,0.5,2,50,1,1.5
160662809,gridcompare_block,gridcompare_trial,39,50,2129,nexus2_9_tw_2.00.jpg,nexus2_23_tw_-2.00.jpg,nexus2_6_tw_3.00.jpg,nexus2_19_tw_-2.00.jpg,nexus2_16_tw_3.00.jpg,2,-2,3,-2,3,0,102,0.25,3,50,1,2.75
160662809,gridcompare_block,gridcompare_trial,40,50,1290,nexus2_5_tw_0.00.jpg,nexus2_11_tw_-1.00.jpg,nexus2_20_tw_-1.00.jpg,nexus2_24_tw_0.00.jpg,nexus2_21_tw_2.00.jpg,0,-1,-1,0,2,0,102,-0.5,2,50,1,2.5
160662809,gridcompare_block,gridcompare_trial,41,38,2765,nexus2_3_tw_1.00.jpg,nexus2_12_tw_-2.00.jpg,nexus2_23_tw_3.00.jpg,nexus2_14_tw_1.00.jpg,nexus2_18_tw_1.00.jpg,1,-2,3,1,1,0,102,0.75,1,50,0,0.25
160662809,gridcompare_block,gridcompare_trial,42,50,3151,nexus2_4_tw_0.00.jpg,nexus2_16_tw_2.00.jpg,nexus2_19_tw_0.00.jpg,nexus2_6_tw_2.00.jpg,nexus2_24_tw_-1.00.jpg,0,2,0,2,-1,0,102,1,-1,38,0,2
160662809,gridcompare_block,gridcompare_trial,43,50,1398,nexus2_11_tw_2.00.jpg,nexus2_9_tw_0.00.jpg,nexus2_8_tw_-3.00.jpg,nexus2_1_tw_3.00.jpg,nexus2_10_tw_0.00.jpg,2,0,-3,3,0,0,102,0.5,0,38,0,0.5
160662809,gridcompare_block,gridcompare_trial,44,38,991,nexus2_17_tw_-2.00.jpg,nexus2_25_tw_-3.00.jpg,nexus2_22_tw_0.00.jpg,nexus2_5_tw_-1.00.jpg,nexus2_15_tw_2.00.jpg,-2,-3,0,-1,2,0,102,-1.5,2,50,0,3.5
160662809,gridcompare_block,gridcompare_trial,45,38,2206,nexus2_20_tw_-2.00.jpg,nexus2_13_tw_1.00.jpg,nexus2_21_tw_-1.00.jpg,nexus2_7_tw_-2.00.jpg,nexus2_2_tw_1.00.jpg,-2,1,-1,-2,1,0,102,-1,1,50,0,2
160662809,gridcompare_block,gridcompare_trial,46,50,1594,nexus2_1_tw_0.00.jpg,nexus2_19_tw_1.00.jpg,nexus2_13_tw_0.00.jpg,nexus2_14_tw_-1.00.jpg,nexus2_15_tw_-1.00.jpg,0,1,0,-1,-1,0,102,0,-1,38,0,1
160662809,gridcompare_block,gridcompare_trial,47,50,1295,nexus2_23_tw_0.00.jpg,nexus2_16_tw_-2.00.jpg,nexus2_8_tw_-1.00.jpg,nexus2_22_tw_-2.00.jpg,nexus2_12_tw_2.00.jpg,0,-2,-1,-2,2,0,102,-1.25,2,50,1,3.25
160662809,gridcompare_block,gridcompare_trial,48,50,1156,nexus2_3_tw_2.00.jpg,nexus2_11_tw_-3.00.jpg,nexus2_10_tw_-2.00.jpg,nexus2_25_tw_-1.00.jpg,nexus2_2_tw_2.00.jpg,2,-3,-2,-1,2,0,102,-1,2,50,1,3
160662809,gridcompare_block,gridcompare_trial,49,50,1815,nexus2_4_tw_1.00.jpg,nexus2_5_tw_-3.00.jpg,nexus2_20_tw_2.00.jpg,nexus2_18_tw_0.00.jpg,nexus2_17_tw_0.00.jpg,1,-3,2,0,0,1,103,0,0,NA,NA,0
160662809,gridcompare_block,gridcompare_trial,50,38,1078,nexus2_6_tw_-1.00.jpg,nexus2_24_tw_3.00.jpg,nexus2_7_tw_1.00.jpg,nexus2_9_tw_-2.00.jpg,nexus2_21_tw_-2.00.jpg,-1,3,1,-2,-2,0,103,0.25,-2,38,1,2.25
160662809,gridcompare_block,gridcompare_trial,51,38,2078,nexus2_3_tw_-1.00.jpg,nexus2_20_tw_0.00.jpg,nexus2_1_tw_-1.00.jpg,nexus2_22_tw_1.00.jpg,nexus2_5_tw_-2.00.jpg,-1,0,-1,1,-2,0,103,-0.25,-2,38,1,1.75
160662809,gridcompare_block,gridcompare_trial,52,38,1244,nexus2_16_tw_0.00.jpg,nexus2_13_tw_-3.00.jpg,nexus2_21_tw_3.00.jpg,nexus2_6_tw_0.00.jpg,nexus2_7_tw_-3.00.jpg,0,-3,3,0,-3,0,103,0,-3,38,1,3
160662809,gridcompare_block,gridcompare_trial,53,50,1004,nexus2_24_tw_1.00.jpg,nexus2_25_tw_0.00.jpg,nexus2_11_tw_1.00.jpg,nexus2_9_tw_-3.00.jpg,nexus2_17_tw_1.00.jpg,1,0,1,-3,1,0,103,-0.25,1,50,1,1.25
160662809,gridcompare_block,gridcompare_trial,54,38,1464,nexus2_4_tw_-3.00.jpg,nexus2_15_tw_3.00.jpg,nexus2_8_tw_1.00.jpg,nexus2_18_tw_-3.00.jpg,nexus2_12_tw_0.00.jpg,-3,3,1,-3,0,0,103,-0.5,0,50,0,0.5
160662809,gridcompare_block,gridcompare_trial,55,38,1309,nexus2_14_tw_2.00.jpg,nexus2_10_tw_2.00.jpg,nexus2_19_tw_2.00.jpg,nexus2_23_tw_-3.00.jpg,nexus2_2_tw_-1.00.jpg,2,2,2,-3,-1,0,103,0.75,-1,38,1,1.75
160662809,gridcompare_block,gridcompare_trial,56,38,1791,nexus2_11_tw_3.00.jpg,nexus2_16_tw_1.00.jpg,nexus2_21_tw_0.00.jpg,nexus2_23_tw_2.00.jpg,nexus2_1_tw_-2.00.jpg,3,1,0,2,-2,0,103,1.5,-2,38,1,3.5
160662809,gridcompare_block,gridcompare_trial,57,50,2512,nexus2_8_tw_2.00.jpg,nexus2_10_tw_1.00.jpg,nexus2_24_tw_-2.00.jpg,nexus2_20_tw_-3.00.jpg,nexus2_5_tw_2.00.jpg,2,1,-2,-3,2,0,103,-0.5,2,50,1,2.5
160662809,gridcompare_block,gridcompare_trial,58,38,1456,nexus2_4_tw_-1.00.jpg,nexus2_25_tw_2.00.jpg,nexus2_14_tw_-3.00.jpg,nexus2_6_tw_-2.00.jpg,nexus2_15_tw_-3.00.jpg,-1,2,-3,-2,-3,0,103,-1,-3,38,1,2
160662809,gridcompare_block,gridcompare_trial,59,50,1354,nexus2_17_tw_2.00.jpg,nexus2_22_tw_2.00.jpg,nexus2_2_tw_-3.00.jpg,nexus2_18_tw_3.00.jpg,nexus2_19_tw_-3.00.jpg,2,2,-3,3,-3,0,103,1,-3,38,0,4
160662809,gridcompare_block,gridcompare_trial,60,38,1410,nexus2_3_tw_3.00.jpg,nexus2_12_tw_1.00.jpg,nexus2_9_tw_3.00.jpg,nexus2_7_tw_2.00.jpg,nexus2_13_tw_-1.00.jpg,3,1,3,2,-1,0,103,2.25,-1,38,1,3.25
160662809,gridcompare_block,gridcompare_trial,61,38,732,nexus2_10_tw_-1.00.jpg,nexus2_4_tw_-2.00.jpg,nexus2_6_tw_-3.00.jpg,nexus2_5_tw_3.00.jpg,nexus2_1_tw_-3.00.jpg,-1,-2,-3,3,-3,0,103,-0.75,-3,38,1,2.25
160662809,gridcompare_block,gridcompare_trial,62,38,1197,nexus2_21_tw_1.00.jpg,nexus2_7_tw_0.00.jpg,nexus2_19_tw_3.00.jpg,nexus2_13_tw_3.00.jpg,nexus2_2_tw_-2.00.jpg,1,0,3,3,-2,0,103,1.75,-2,38,1,3.75
160662809,gridcompare_block,gridcompare_trial,63,38,1443,nexus2_14_tw_0.00.jpg,nexus2_20_tw_3.00.jpg,nexus2_23_tw_1.00.jpg,nexus2_15_tw_1.00.jpg,nexus2_11_tw_0.00.jpg,0,3,1,1,0,0,103,1.25,0,38,1,1.25
160662809,gridcompare_block,gridcompare_trial,64,50,1938,nexus2_3_tw_-3.00.jpg,nexus2_17_tw_-3.00.jpg,nexus2_8_tw_0.00.jpg,nexus2_12_tw_-3.00.jpg,nexus2_16_tw_-3.00.jpg,-3,-3,0,-3,-3,0,103,-2.25,-3,38,0,0.75
160662809,gridcompare_block,gridcompare_trial,65,38,1685,nexus2_24_tw_-3.00.jpg,nexus2_25_tw_3.00.jpg,nexus2_22_tw_3.00.jpg,nexus2_9_tw_-1.00.jpg,nexus2_18_tw_-2.00.jpg,-3,3,3,-1,-2,0,103,0.5,-2,38,1,2.5
160662809,gridcompare_block,gridcompare_trial,66,38,1051,nexus2_15_tw_-2.00.jpg,nexus2_4_tw_3.00.jpg,nexus2_19_tw_-1.00.jpg,nexus2_17_tw_3.00.jpg,nexus2_14_tw_-2.00.jpg,-2,3,-1,3,-2,0,103,0.75,-2,38,1,2.75
160662809,gridcompare_block,gridcompare_trial,67,38,1503,nexus2_24_tw_2.00.jpg,nexus2_21_tw_-3.00.jpg,nexus2_10_tw_-3.00.jpg,nexus2_7_tw_3.00.jpg,nexus2_1_tw_1.00.jpg,2,-3,-3,3,1,0,103,-0.25,1,50,0,1.25
160662809,gridcompare_block,gridcompare_trial,68,50,1274,nexus2_18_tw_2.00.jpg,nexus2_5_tw_1.00.jpg,nexus2_2_tw_0.00.jpg,nexus2_8_tw_-2.00.jpg,nexus2_12_tw_3.00.jpg,2,1,0,-2,3,0,103,0.25,3,50,1,2.75
160662809,gridcompare_block,gridcompare_trial,69,38,1256,nexus2_20_tw_1.00.jpg,nexus2_25_tw_1.00.jpg,nexus2_23_tw_-1.00.jpg,nexus2_3_tw_0.00.jpg,nexus2_13_tw_-2.00.jpg,1,1,-1,0,-2,0,103,0.25,-2,38,1,2.25
160662809,gridcompare_block,gridcompare_trial,70,38,731,nexus2_11_tw_-2.00.jpg,nexus2_16_tw_-1.00.jpg,nexus2_9_tw_1.00.jpg,nexus2_6_tw_1.00.jpg,nexus2_22_tw_-3.00.jpg,-2,-1,1,1,-3,0,103,-0.25,-3,38,1,2.75
160662809,gridcompare_block,gridcompare_trial,71,38,1193,nexus2_18_tw_-1.00.jpg,nexus2_21_tw_-3.00.jpg,nexus2_12_tw_0.00.jpg,nexus2_15_tw_-3.00.jpg,nexus2_20_tw_1.00.jpg,-1,-3,0,-3,1,0,103,-1.75,1,50,0,2.75
